pos,corr_resp,trials.thisRepN,trials.thisTrialN,trials.thisN,trials.thisIndex,trials_2.thisRepN,trials_2.thisTrialN,trials_2.thisN,trials_2.thisIndex,fixation.started,line1.started,line2.started,line3.started,line4.started,fixation.stopped,probe.started,key_resp.started,key_resp.keys,key_resp.corr,key_resp.rt,key_resp.duration,participant,session,date,expName,psychopyVersion,frameRate,
-50,x,0,0,0,0,,,,,12.14926899999955,13.132613600000695,13.132613600000695,13.132613600000695,13.132613600000695,13.14913449999949,14.132756700000755,14.132756700000755,x,1,7.94266990000142,None,01,001,2023-10-09_11h18.23.939,motor_sequence_learning,2023.1.3,59.80675242112376,
150,v,0,1,1,1,,,,,22.098960799999986,23.100102500000503,23.100102500000503,23.100102500000503,23.100102500000503,23.100102500000503,24.099352900000667,24.099352900000667,v,1,0.9278470000008383,None,01,001,2023-10-09_11h18.23.939,motor_sequence_learning,2023.1.3,59.80675242112376,
50,c,0,2,2,2,,,,,25.049568099999306,26.051381799999945,26.051381799999945,26.051381799999945,26.051381799999945,26.051381799999945,27.049287199999526,27.049287199999526,c,1,3.075573899999654,None,01,001,2023-10-09_11h18.23.939,motor_sequence_learning,2023.1.3,59.80675242112376,
-150,z,0,3,3,3,,,,,30.14851389999967,31.13343039999927,31.13343039999927,31.13343039999927,31.13343039999927,31.149637200000143,32.14888190000056,32.14888190000056,z,1,0.8062524000015401,None,01,001,2023-10-09_11h18.23.939,motor_sequence_learning,2023.1.3,59.80675242112376,
-50,x,1,0,4,0,,,,,32.98210409999956,33.982913399999234,33.982913399999234,33.982913399999234,33.982913399999234,33.982913399999234,34.982435399999304,34.982435399999304,x,1,0.6582063000005292,None,01,001,2023-10-09_11h18.23.939,motor_sequence_learning,2023.1.3,59.80675242112376,
150,v,1,1,5,1,,,,,35.665407599999526,36.66576179999902,36.66576179999902,36.66576179999902,36.66576179999902,36.66576179999902,37.66579669999919,37.66579669999919,v,1,0.7020479000002524,None,01,001,2023-10-09_11h18.23.939,motor_sequence_learning,2023.1.3,59.80675242112376,
50,c,1,2,6,2,,,,,38.39896260000023,39.39921019999929,39.39921019999929,39.39921019999929,39.39921019999929,39.39921019999929,40.39912659999936,40.39912659999936,c,1,0.7613643000004231,None,01,001,2023-10-09_11h18.23.939,motor_sequence_learning,2023.1.3,59.80675242112376,
-150,z,1,3,7,3,,,,,41.18269750000036,42.18281500000012,42.18281500000012,42.18281500000012,42.18281500000012,42.18281500000012,43.182492800000546,43.182492800000546,z,1,2.0784101000008377,None,01,001,2023-10-09_11h18.23.939,motor_sequence_learning,2023.1.3,59.80675242112376,
-50,x,2,0,8,0,,,,,45.282437600000776,46.286039399999936,46.286039399999936,46.286039399999936,46.286039399999936,46.286039399999936,47.28231330000017,47.28231330000017,x,1,0.6652343999994628,None,01,001,2023-10-09_11h18.23.939,motor_sequence_learning,2023.1.3,59.80675242112376,
150,v,2,1,9,1,,,,,47.965297000000646,48.96604160000061,48.96604160000061,48.96604160000061,48.96604160000061,48.96604160000061,49.965542100000675,49.965542100000675,v,1,0.6939523000000918,None,01,001,2023-10-09_11h18.23.939,motor_sequence_learning,2023.1.3,59.80675242112376,
50,c,2,2,10,2,,,,,50.68233080000027,51.682447299999694,51.682447299999694,51.682447299999694,51.682447299999694,51.682447299999694,52.682270600000265,52.682270600000265,c,1,0.8171872000002622,None,01,001,2023-10-09_11h18.23.939,motor_sequence_learning,2023.1.3,59.80675242112376,
-150,z,2,3,11,3,,,,,53.51577059999909,54.515817999999854,54.515817999999854,54.515817999999854,54.515817999999854,54.515817999999854,55.515443199999936,55.515443199999936,z,1,0.8484626000008575,None,01,001,2023-10-09_11h18.23.939,motor_sequence_learning,2023.1.3,59.80675242112376,
-50,x,3,0,12,0,,,,,56.38549880000028,57.38239550000071,57.38239550000071,57.38239550000071,57.38239550000071,57.39887610000005,58.38190360000044,58.38190360000044,x,1,0.5732287999999244,None,01,001,2023-10-09_11h18.23.939,motor_sequence_learning,2023.1.3,59.80675242112376,
150,v,3,1,13,1,,,,,58.98187060000055,59.9824735000002,59.9824735000002,59.9824735000002,59.9824735000002,59.9824735000002,60.981751400000576,60.981751400000576,v,1,0.6246615999989444,None,01,001,2023-10-09_11h18.23.939,motor_sequence_learning,2023.1.3,59.80675242112376,
50,c,3,2,14,2,,,,,61.63180769999963,62.63269249999939,62.63269249999939,62.63269249999939,62.63269249999939,62.63269249999939,63.63184170000022,63.63184170000022,c,1,0.7716856999995798,None,01,001,2023-10-09_11h18.23.939,motor_sequence_learning,2023.1.3,59.80675242112376,
-150,z,3,3,15,3,,,,,64.43160290000014,65.43242180000016,65.43242180000016,65.43242180000016,65.43242180000016,65.43242180000016,66.43228350000027,66.43228350000027,z,1,0.6232691999994131,None,01,001,2023-10-09_11h18.23.939,motor_sequence_learning,2023.1.3,59.80675242112376,
-50,x,4,0,16,0,,,,,67.08229050000045,68.08235009999953,68.08235009999953,68.08235009999953,68.08235009999953,68.08235009999953,69.08144119999997,69.08144119999997,x,1,0.6494171000013012,None,01,001,2023-10-09_11h18.23.939,motor_sequence_learning,2023.1.3,59.80675242112376,
150,v,4,1,17,1,,,,,69.7480900999999,70.74918359999901,70.74918359999901,70.74918359999901,70.74918359999901,70.74918359999901,71.74865279999904,71.74865279999904,v,1,0.5797729000005347,None,01,001,2023-10-09_11h18.23.939,motor_sequence_learning,2023.1.3,59.80675242112376,
50,c,4,2,18,2,,,,,72.34815569999955,73.34967119999965,73.34967119999965,73.34967119999965,73.34967119999965,73.34967119999965,74.34880909999993,74.34880909999993,c,1,0.7220443999995041,None,01,001,2023-10-09_11h18.23.939,motor_sequence_learning,2023.1.3,59.80675242112376,
-150,z,4,3,19,3,,,,,75.09946370000034,76.09973119999995,76.09973119999995,76.09973119999995,76.09973119999995,76.09973119999995,77.0996097999996,77.0996097999996,z,1,0.7037010999993072,None,01,001,2023-10-09_11h18.23.939,motor_sequence_learning,2023.1.3,59.80675242112376,
-50,x,5,0,20,0,,,,,77.83135849999962,78.81533560000025,78.81533560000025,78.81533560000025,78.81533560000025,78.83256989999973,79.83155389999956,79.83155389999956,x,1,0.8667446000017662,None,01,001,2023-10-09_11h18.23.939,motor_sequence_learning,2023.1.3,59.80675242112376,
150,v,5,1,21,1,,,,,80.71469310000066,81.69884169999932,81.69884169999932,81.69884169999932,81.69884169999932,81.71573729999909,82.7146916999991,82.7146916999991,v,1,0.6298554999993939,None,01,001,2023-10-09_11h18.23.939,motor_sequence_learning,2023.1.3,59.80675242112376,
50,c,5,2,22,2,,,,,83.36580470000081,84.36517819999972,84.36517819999972,84.36517819999972,84.36517819999972,84.36517819999972,85.36522239999977,85.36522239999977,c,1,0.6080201999993733,None,01,001,2023-10-09_11h18.23.939,motor_sequence_learning,2023.1.3,59.80675242112376,
-150,z,5,3,23,3,,,,,85.99783209999987,86.99777250000079,86.99777250000079,86.99777250000079,86.99777250000079,86.99777250000079,87.99833639999997,87.99833639999997,z,1,0.7230335000003834,None,01,001,2023-10-09_11h18.23.939,motor_sequence_learning,2023.1.3,59.80675242112376,
-50,x,6,0,24,0,,,,,88.74861249999958,89.74793069999942,89.74793069999942,89.74793069999942,89.74793069999942,89.74793069999942,90.7474858000005,90.7474858000005,x,1,0.5957734000003256,None,01,001,2023-10-09_11h18.23.939,motor_sequence_learning,2023.1.3,59.80675242112376,
150,v,6,1,25,1,,,,,91.36477949999971,92.34919470000023,92.34919470000023,92.34919470000023,92.34919470000023,92.36506030000055,93.34883889999946,93.34883889999946,v,1,0.6102418999998918,None,01,001,2023-10-09_11h18.23.939,motor_sequence_learning,2023.1.3,59.80675242112376,
50,c,6,2,26,2,,,,,93.99839559999964,94.9989585000003,94.9989585000003,94.9989585000003,94.9989585000003,94.9989585000003,95.99759470000026,95.99759470000026,c,1,0.7880500000010215,None,01,001,2023-10-09_11h18.23.939,motor_sequence_learning,2023.1.3,59.80675242112376,
-150,z,6,3,27,3,,,,,96.81465580000076,97.81487559999914,97.81487559999914,97.81487559999914,97.81487559999914,97.81487559999914,98.81439080000018,98.81439080000018,z,1,0.6329194000009011,None,01,001,2023-10-09_11h18.23.939,motor_sequence_learning,2023.1.3,59.80675242112376,
-50,x,7,0,28,0,,,,,99.46433219999926,100.46516680000059,100.46516680000059,100.46516680000059,100.46516680000059,100.46516680000059,101.4641470000006,101.4641470000006,x,1,0.8148598000007041,None,01,001,2023-10-09_11h18.23.939,motor_sequence_learning,2023.1.3,59.80675242112376,
150,v,7,1,29,1,,,,,102.29857970000012,103.29823140000008,103.29823140000008,103.29823140000008,103.29823140000008,103.29823140000008,104.29738429999998,104.29738429999998,v,1,1.2640260999996826,None,01,001,2023-10-09_11h18.23.939,motor_sequence_learning,2023.1.3,59.80675242112376,
50,c,7,2,30,2,,,,,105.58159920000071,106.58108840000023,106.58108840000023,106.58108840000023,106.58108840000023,106.58108840000023,107.58111529999951,107.58111529999951,c,1,0.6722230000013951,None,01,001,2023-10-09_11h18.23.939,motor_sequence_learning,2023.1.3,59.80675242112376,
-150,z,7,3,31,3,,,,,108.28115210000033,109.28199259999928,109.28199259999928,109.28199259999928,109.28199259999928,109.28199259999928,110.28124070000013,110.28124070000013,z,1,0.614523399999598,None,01,001,2023-10-09_11h18.23.939,motor_sequence_learning,2023.1.3,59.80675242112376,
-50,x,8,0,32,0,,,,,110.9192167000001,111.91439130000072,111.91439130000072,111.91439130000072,111.91439130000072,111.93087989999913,112.91426110000066,112.91426110000066,x,1,0.6743449000005057,None,01,001,2023-10-09_11h18.23.939,motor_sequence_learning,2023.1.3,59.80675242112376,
150,v,8,1,33,1,,,,,113.6142189000002,114.61442309999984,114.61442309999984,114.61442309999984,114.61442309999984,114.61442309999984,115.61478119999992,115.61478119999992,v,1,0.7365171000001283,None,01,001,2023-10-09_11h18.23.939,motor_sequence_learning,2023.1.3,59.80675242112376,
50,c,8,2,34,2,,,,,116.38120969999909,117.3815838999999,117.3815838999999,117.3815838999999,117.3815838999999,117.3815838999999,118.36472920000051,118.36472920000051,x,0,0.06701710000015737,None,01,001,2023-10-09_11h18.23.939,motor_sequence_learning,2023.1.3,59.80675242112376,
-150,z,8,3,35,3,,,,,118.44854339999983,119.44822759999988,119.44822759999988,119.44822759999988,119.44822759999988,119.44822759999988,120.44928419999997,120.44928419999997,c,0,0.06805890000032377,None,01,001,2023-10-09_11h18.23.939,motor_sequence_learning,2023.1.3,59.80675242112376,
-50,x,9,0,36,0,,,,,120.54841990000023,121.54787399999987,121.54787399999987,121.54787399999987,121.54787399999987,121.54787399999987,122.54880889999913,122.54880889999913,x,1,0.6610550000004878,None,01,001,2023-10-09_11h18.23.939,motor_sequence_learning,2023.1.3,59.80675242112376,
150,v,9,1,37,1,,,,,123.23161299999992,124.23163260000001,124.23163260000001,124.23163260000001,124.23163260000001,124.23163260000001,125.23094999999921,125.23094999999921,v,1,0.6413440000014816,None,01,001,2023-10-09_11h18.23.939,motor_sequence_learning,2023.1.3,59.80675242112376,
50,c,9,2,38,2,,,,,125.89697080000042,126.89813940000022,126.89813940000022,126.89813940000022,126.89813940000022,126.89813940000022,127.89747329999955,127.89747329999955,c,1,0.948177800000849,None,01,001,2023-10-09_11h18.23.939,motor_sequence_learning,2023.1.3,59.80675242112376,
-150,z,9,3,39,3,,,,,128.86472820000017,129.8654267999991,129.8654267999991,129.8654267999991,129.8654267999991,129.8654267999991,130.86540520000017,130.86540520000017,z,1,0.6298925999999483,None,01,001,2023-10-09_11h18.23.939,motor_sequence_learning,2023.1.3,59.80675242112376,
-50,x,10,0,40,0,,,,,131.51429009999993,132.51547709999977,132.51547709999977,132.51547709999977,132.51547709999977,132.51547709999977,133.51551839999956,133.51551839999956,x,1,1.3430045000004611,None,01,001,2023-10-09_11h18.23.939,motor_sequence_learning,2023.1.3,59.80675242112376,
150,v,10,1,41,1,,,,,134.88144850000026,135.8820025999994,135.8820025999994,135.8820025999994,135.8820025999994,135.8820025999994,136.88225930000044,136.88225930000044,v,1,0.7117246999987401,None,01,001,2023-10-09_11h18.23.939,motor_sequence_learning,2023.1.3,59.80675242112376,
50,c,10,2,42,2,,,,,137.61415250000027,138.61491969999952,138.61491969999952,138.61491969999952,138.61491969999952,138.61491969999952,139.61454830000002,139.61454830000002,c,1,0.7222352000007959,None,01,001,2023-10-09_11h18.23.939,motor_sequence_learning,2023.1.3,59.80675242112376,
-150,z,10,3,43,3,,,,,140.36455849999948,141.36479399999916,141.36479399999916,141.36479399999916,141.36479399999916,141.36479399999916,142.36672410000028,142.36672410000028,z,1,0.6988713000009739,None,01,001,2023-10-09_11h18.23.939,motor_sequence_learning,2023.1.3,59.80675242112376,
-50,x,11,0,44,0,,,,,143.0978873999993,144.09826539999995,144.09826539999995,144.09826539999995,144.09826539999995,144.09826539999995,145.09789780000028,145.09789780000028,x,1,0.5913929000016651,None,01,001,2023-10-09_11h18.23.939,motor_sequence_learning,2023.1.3,59.80675242112376,
150,v,11,1,45,1,,,,,145.71485629999916,146.7153613999999,146.7153613999999,146.7153613999999,146.7153613999999,146.7153613999999,147.714290599999,147.714290599999,v,1,0.5891816000003018,None,01,001,2023-10-09_11h18.23.939,motor_sequence_learning,2023.1.3,59.80675242112376,
50,c,11,2,46,2,,,,,148.33077550000053,149.33091349999995,149.33091349999995,149.33091349999995,149.33091349999995,149.33091349999995,150.33067590000064,150.33067590000064,c,1,1.125945399999182,None,01,001,2023-10-09_11h18.23.939,motor_sequence_learning,2023.1.3,59.80675242112376,
-150,z,11,3,47,3,,,,,151.48135290000027,152.48091759999988,152.48091759999988,152.48091759999988,152.48091759999988,152.49681559999954,153.48045920000004,153.48045920000004,z,1,0.7808116000014707,None,01,001,2023-10-09_11h18.23.939,motor_sequence_learning,2023.1.3,59.80675242112376,
-50,x,12,0,48,0,,,,,154.2799670000004,155.28090220000013,155.28090220000013,155.28090220000013,155.28090220000013,155.28090220000013,156.27973159999965,156.27973159999965,x,1,0.5962433999993664,None,01,001,2023-10-09_11h18.23.939,motor_sequence_learning,2023.1.3,59.80675242112376,
150,v,12,1,49,1,,,,,156.8968999000008,157.8973635000002,157.8973635000002,157.8973635000002,157.8973635000002,157.8973635000002,158.89642739999908,158.89642739999908,v,1,0.6525676000019303,None,01,001,2023-10-09_11h18.23.939,motor_sequence_learning,2023.1.3,59.80675242112376,
50,c,12,2,50,2,,,,,159.57993720000013,160.5805151000004,160.5805151000004,160.5805151000004,160.5805151000004,160.5805151000004,161.5804862999994,161.5804862999994,c,1,1.3995721000010235,None,01,001,2023-10-09_11h18.23.939,motor_sequence_learning,2023.1.3,59.80675242112376,
-150,z,12,3,51,3,,,,,162.99738289999914,163.99762809999993,163.99762809999993,163.99762809999993,163.99762809999993,163.99762809999993,164.9975599999998,164.9975599999998,z,1,0.6555894000011904,None,01,001,2023-10-09_11h18.23.939,motor_sequence_learning,2023.1.3,59.80675242112376,
-50,x,13,0,52,0,,,,,165.68112180000026,166.68154270000014,166.68154270000014,166.68154270000014,166.68154270000014,166.68154270000014,167.68380799999977,167.68380799999977,x,1,0.6579570000012609,None,01,001,2023-10-09_11h18.23.939,motor_sequence_learning,2023.1.3,59.80675242112376,
150,v,13,1,53,1,,,,,168.36454349999985,169.36374009999963,169.36374009999963,169.36374009999963,169.36374009999963,169.36374009999963,170.3641377999993,170.3641377999993,v,1,0.5867261000003055,None,01,001,2023-10-09_11h18.23.939,motor_sequence_learning,2023.1.3,59.80675242112376,
50,c,13,2,54,2,,,,,170.98015809999924,171.9637261000007,171.9637261000007,171.9637261000007,171.9637261000007,171.98025959999904,172.97994350000045,172.97994350000045,c,1,0.5492123999993055,None,01,001,2023-10-09_11h18.23.939,motor_sequence_learning,2023.1.3,59.80675242112376,
-150,z,13,3,55,3,,,,,173.54709430000003,174.547022499999,174.547022499999,174.547022499999,174.547022499999,174.547022499999,175.54663140000048,175.54663140000048,z,1,1.585070999999516,None,01,001,2023-10-09_11h18.23.939,motor_sequence_learning,2023.1.3,59.80675242112376,
-50,x,14,0,56,0,,,,,177.16355920000024,178.16385939999964,178.16385939999964,178.16385939999964,178.16385939999964,178.16385939999964,179.16457549999905,179.16457549999905,x,1,0.5980687000010221,None,01,001,2023-10-09_11h18.23.939,motor_sequence_learning,2023.1.3,59.80675242112376,
150,v,14,1,57,1,,,,,179.78120809999928,180.779713599999,180.779713599999,180.779713599999,180.779713599999,180.7959952000001,181.77988220000043,181.77988220000043,v,1,0.623886900000798,None,01,001,2023-10-09_11h18.23.939,motor_sequence_learning,2023.1.3,59.80675242112376,
50,c,14,2,58,2,,,,,182.42921340000066,183.43012110000018,183.43012110000018,183.43012110000018,183.43012110000018,183.43012110000018,184.42985840000074,184.42985840000074,c,1,0.8815315000010742,None,01,001,2023-10-09_11h18.23.939,motor_sequence_learning,2023.1.3,59.80675242112376,
-150,z,14,3,59,3,,,,,185.33064449999983,186.33024990000013,186.33024990000013,186.33024990000013,186.33024990000013,186.33024990000013,187.3303347000001,187.3303347000001,z,1,0.6046501999990141,None,01,001,2023-10-09_11h18.23.939,motor_sequence_learning,2023.1.3,59.80675242112376,
-50,x,15,0,60,0,,,,,187.9624831000001,188.96376480000072,188.96376480000072,188.96376480000072,188.96376480000072,188.96376480000072,189.96280750000005,189.96280750000005,x,1,1.1888895000010962,None,01,001,2023-10-09_11h18.23.939,motor_sequence_learning,2023.1.3,59.80675242112376,
150,v,15,1,61,1,,,,,191.1797972000004,192.18121919999976,192.18121919999976,192.18121919999976,192.18121919999976,192.18121919999976,193.18012180000005,193.18012180000005,v,1,0.9730381999997917,None,01,001,2023-10-09_11h18.23.939,motor_sequence_learning,2023.1.3,59.80675242112376,
50,c,15,2,62,2,,,,,194.17890909999915,195.1797958999996,195.1797958999996,195.1797958999996,195.1797958999996,195.1797958999996,196.17934930000047,196.17934930000047,v,0,0.7252112000005582,None,01,001,2023-10-09_11h18.23.939,motor_sequence_learning,2023.1.3,59.80675242112376,
-150,z,15,3,63,3,,,,,196.9297131000003,197.92992380000032,197.92992380000032,197.92992380000032,197.92992380000032,197.92992380000032,198.92870740000035,198.92870740000035,z,1,0.5857670000004873,None,01,001,2023-10-09_11h18.23.939,motor_sequence_learning,2023.1.3,59.80675242112376,
-50,x,16,0,64,0,,,,,199.54653420000068,200.54628520000006,200.54628520000006,200.54628520000006,200.54628520000006,200.54628520000006,201.5461983999994,201.5461983999994,x,1,2.292398999999932,None,01,001,2023-10-09_11h18.23.939,motor_sequence_learning,2023.1.3,59.80675242112376,
150,v,16,1,65,1,,,,,203.86224439999933,204.862846,204.862846,204.862846,204.862846,204.862846,205.86250090000067,205.86250090000067,v,1,3.1595956000001024,None,01,001,2023-10-09_11h18.23.939,motor_sequence_learning,2023.1.3,59.80675242112376,
50,c,16,2,66,2,,,,,209.04583380000076,210.0464293999994,210.0464293999994,210.0464293999994,210.0464293999994,210.0464293999994,211.04665340000065,211.04665340000065,c,1,0.5282356999996409,None,01,001,2023-10-09_11h18.23.939,motor_sequence_learning,2023.1.3,59.80675242112376,
-150,z,16,3,67,3,,,,,211.59643529999994,212.59671180000078,212.59671180000078,212.59671180000078,212.59671180000078,212.59671180000078,213.59656929999983,213.59656929999983,z,1,0.4694593000003806,None,01,001,2023-10-09_11h18.23.939,motor_sequence_learning,2023.1.3,59.80675242112376,
-50,x,17,0,68,0,,,,,214.0962318999991,215.09665239999958,215.09665239999958,215.09665239999958,215.09665239999958,215.09665239999958,216.09668880000027,216.09668880000027,x,1,4.034081499999957,None,01,001,2023-10-09_11h18.23.939,motor_sequence_learning,2023.1.3,59.80675242112376,
150,v,17,1,69,1,,,,,220.16212470000028,221.16290429999935,221.16290429999935,221.16290429999935,221.16290429999935,221.16290429999935,222.16251039999952,222.16251039999952,v,1,0.6441813000001275,None,01,001,2023-10-09_11h18.23.939,motor_sequence_learning,2023.1.3,59.80675242112376,
50,c,17,2,70,2,,,,,222.82849949999945,223.8296205000006,223.8296205000006,223.8296205000006,223.8296205000006,223.8296205000006,224.82898019999993,224.82898019999993,c,1,4.766174800000954,None,01,001,2023-10-09_11h18.23.939,motor_sequence_learning,2023.1.3,59.80675242112376,
-150,z,17,3,71,3,,,,,229.61227289999988,230.61303889999908,230.61303889999908,230.61303889999908,230.61303889999908,230.61303889999908,231.61267570000018,231.61267570000018,z,1,2.84547240000029,None,01,001,2023-10-09_11h18.23.939,motor_sequence_learning,2023.1.3,59.80675242112376,
-50,x,18,0,72,0,,,,,234.47946799999954,235.4800962999998,235.4800962999998,235.4800962999998,235.4800962999998,235.4800962999998,236.48023690000082,236.48023690000082,x,1,0.8965485999997327,None,01,001,2023-10-09_11h18.23.939,motor_sequence_learning,2023.1.3,59.80675242112376,
150,v,18,1,73,1,,,,,237.39647589999913,238.39675999999963,238.39675999999963,238.39675999999963,238.39675999999963,238.39675999999963,239.3958273999997,239.3958273999997,v,1,0.7993048000007548,None,01,001,2023-10-09_11h18.23.939,motor_sequence_learning,2023.1.3,59.80675242112376,
50,c,18,2,74,2,,,,,240.21223819999977,241.21236429999954,241.21236429999954,241.21236429999954,241.21236429999954,241.21236429999954,242.21225659999982,242.21225659999982,c,1,1.8754441000000952,None,01,001,2023-10-09_11h18.23.939,motor_sequence_learning,2023.1.3,59.80675242112376,
-150,z,18,3,75,3,,,,,244.11444839999967,245.11323660000016,245.11323660000016,245.11323660000016,245.11323660000016,245.1293521000007,246.11337850000018,246.11337850000018,z,1,0.5696784000010666,None,01,001,2023-10-09_11h18.23.939,motor_sequence_learning,2023.1.3,59.80675242112376,
-50,x,19,0,76,0,,,,,246.71275099999912,247.71251499999926,247.71251499999926,247.71251499999926,247.71251499999926,247.71251499999926,248.7125904000004,248.7125904000004,x,1,0.6615603999998712,None,01,001,2023-10-09_11h18.23.939,motor_sequence_learning,2023.1.3,59.80675242112376,
150,v,19,1,77,1,,,,,249.39486299999953,250.39559050000025,250.39559050000025,250.39559050000025,250.39559050000025,250.39559050000025,251.39499179999984,251.39499179999984,v,1,7.810826000000816,None,01,001,2023-10-09_11h18.23.939,motor_sequence_learning,2023.1.3,59.80675242112376,
50,c,19,2,78,2,,,,,259.2285745999998,260.2287120000001,260.2287120000001,260.2287120000001,260.2287120000001,260.2287120000001,261.22830280000017,261.22830280000017,c,1,0.6167944999997417,None,01,001,2023-10-09_11h18.23.939,motor_sequence_learning,2023.1.3,59.80675242112376,
-150,z,19,3,79,3,,,,,261.8612054999994,262.8618270999996,262.8618270999996,262.8618270999996,262.8618270999996,262.8618270999996,263.84651060000033,263.84651060000033,z,1,1.1038302000015392,None,01,001,2023-10-09_11h18.23.939,motor_sequence_learning,2023.1.3,59.80675242112376,
-50,x,20,0,80,0,,,,,264.9782039999991,265.9789282999991,265.9789282999991,265.9789282999991,265.9789282999991,265.9789282999991,266.9779192999995,266.9779192999995,x,1,4.897312000000966,None,01,001,2023-10-09_11h18.23.939,motor_sequence_learning,2023.1.3,59.80675242112376,
150,v,20,1,81,1,,,,,271.8945932000006,272.8951651999996,272.8951651999996,272.8951651999996,272.8951651999996,272.8951651999996,273.8950741000008,273.8950741000008,v,1,0.6711835000005522,None,01,001,2023-10-09_11h18.23.939,motor_sequence_learning,2023.1.3,59.80675242112376,
50,c,20,2,82,2,,,,,274.5953647000006,275.59535159999905,275.59535159999905,275.59535159999905,275.59535159999905,275.59535159999905,276.5952689000005,276.5952689000005,c,1,0.9835215999992215,None,01,001,2023-10-09_11h18.23.939,motor_sequence_learning,2023.1.3,59.80675242112376,
-150,z,20,3,83,3,,,,,277.59514169999966,278.59611790000054,278.59611790000054,278.59611790000054,278.59611790000054,278.59611790000054,279.59537590000036,279.59537590000036,z,1,0.6295537000005424,None,01,001,2023-10-09_11h18.23.939,motor_sequence_learning,2023.1.3,59.80675242112376,
-50,x,21,0,84,0,,,,,280.2487860000001,281.24525059999905,281.24525059999905,281.24525059999905,281.24525059999905,281.2610131000001,282.24490420000075,282.24490420000075,x,1,0.6543764000016381,None,01,001,2023-10-09_11h18.23.939,motor_sequence_learning,2023.1.3,59.80675242112376,
150,v,21,1,85,1,,,,,282.9276167000007,283.9282991,283.9282991,283.9282991,283.9282991,283.9282991,284.92823580000004,284.92823580000004,v,1,0.6903538000005938,None,01,001,2023-10-09_11h18.23.939,motor_sequence_learning,2023.1.3,59.80675242112376,
50,c,21,2,86,2,,,,,285.64468300000044,286.64509609999914,286.64509609999914,286.64509609999914,286.64509609999914,286.64509609999914,287.6277391000003,287.6277391000003,c,1,0.6336048000011942,None,01,001,2023-10-09_11h18.23.939,motor_sequence_learning,2023.1.3,59.80675242112376,
-150,z,21,3,87,3,,,,,288.2774558000001,289.26072229999954,289.26072229999954,289.26072229999954,289.26072229999954,289.27743159999955,290.27733459999945,290.27733459999945,z,1,16.84784579999905,None,01,001,2023-10-09_11h18.23.939,motor_sequence_learning,2023.1.3,59.80675242112376,
-50,x,22,0,88,0,,,,,307.1441365999999,308.1445342999996,308.1445342999996,308.1445342999996,308.1445342999996,308.1445342999996,309.1440103999994,309.1440103999994,x,1,0.6464176000008592,None,01,001,2023-10-09_11h18.23.939,motor_sequence_learning,2023.1.3,59.80675242112376,
150,v,22,1,89,1,,,,,309.8105758999991,310.8107261999994,310.8107261999994,310.8107261999994,310.8107261999994,310.8107261999994,311.8102822000001,311.8102822000001,v,1,0.7701672999992297,None,01,001,2023-10-09_11h18.23.939,motor_sequence_learning,2023.1.3,59.80675242112376,
50,c,22,2,90,2,,,,,312.6102943999995,313.6109639999995,313.6109639999995,313.6109639999995,313.6109639999995,313.6109639999995,314.61040630000025,314.61040630000025,c,1,0.5872212000012951,None,01,001,2023-10-09_11h18.23.939,motor_sequence_learning,2023.1.3,59.80675242112376,
-150,z,22,3,91,3,,,,,315.2274737000007,316.2273691999999,316.2273691999999,316.2273691999999,316.2273691999999,316.2273691999999,317.22718370000075,317.22718370000075,z,1,0.5809221000017715,None,01,001,2023-10-09_11h18.23.939,motor_sequence_learning,2023.1.3,59.80675242112376,
-50,x,23,0,92,0,,,,,317.8269228999998,318.82755820000057,318.82755820000057,318.82755820000057,318.82755820000057,318.82755820000057,319.8291499999996,319.8291499999996,x,1,2.5055234000010387,None,01,001,2023-10-09_11h18.23.939,motor_sequence_learning,2023.1.3,59.80675242112376,
150,v,23,1,93,1,,,,,322.3600607999997,323.36041189999924,323.36041189999924,323.36041189999924,323.36041189999924,323.36041189999924,324.3602377999996,324.3602377999996,v,1,0.8394363000006706,None,01,001,2023-10-09_11h18.23.939,motor_sequence_learning,2023.1.3,59.80675242112376,
50,c,23,2,94,2,,,,,325.2270093999996,326.22751360000075,326.22751360000075,326.22751360000075,326.22751360000075,326.22751360000075,327.22650299999987,327.22650299999987,c,1,3.198499599999195,None,01,001,2023-10-09_11h18.23.939,motor_sequence_learning,2023.1.3,59.80675242112376,
-150,z,23,3,95,3,,,,,330.4435035000006,331.4444177000005,331.4444177000005,331.4444177000005,331.4444177000005,331.4444177000005,332.4429099000008,332.4429099000008,z,1,0.5639542000008078,None,01,001,2023-10-09_11h18.23.939,motor_sequence_learning,2023.1.3,59.80675242112376,
-50,x,24,0,96,0,,,,,333.02695089999906,334.0269100000005,334.0269100000005,334.0269100000005,334.0269100000005,334.0269100000005,335.0266566999999,335.0266566999999,x,1,0.5734479000002466,None,01,001,2023-10-09_11h18.23.939,motor_sequence_learning,2023.1.3,59.80675242112376,
150,v,24,1,97,1,,,,,335.62608419999924,336.6271321999993,336.6271321999993,336.6271321999993,336.6271321999993,336.6271321999993,337.62717840000005,337.62717840000005,v,1,0.7151250999995682,None,01,001,2023-10-09_11h18.23.939,motor_sequence_learning,2023.1.3,59.80675242112376,
50,c,24,2,98,2,,,,,338.3598538999995,339.3602355999992,339.3602355999992,339.3602355999992,339.3602355999992,339.3602355999992,340.35994240000036,340.35994240000036,c,1,0.796893299999283,None,01,001,2023-10-09_11h18.23.939,motor_sequence_learning,2023.1.3,59.80675242112376,
-150,z,24,3,99,3,,,,,341.17645640000046,342.17682550000063,342.17682550000063,342.17682550000063,342.17682550000063,342.17682550000063,343.1765981000008,343.1765981000008,z,1,0.7490355000009004,None,01,001,2023-10-09_11h18.23.939,motor_sequence_learning,2023.1.3,59.80675242112376,
-50,x,25,0,100,0,,,,,343.9432818999994,344.94370849999905,344.94370849999905,344.94370849999905,344.94370849999905,344.94370849999905,345.9435773999994,345.9435773999994,x,1,0.6063943000008294,None,01,001,2023-10-09_11h18.23.939,motor_sequence_learning,2023.1.3,59.80675242112376,
150,v,25,1,101,1,,,,,346.57658359999914,347.57670230000076,347.57670230000076,347.57670230000076,347.57670230000076,347.57670230000076,348.57596059999923,348.57596059999923,v,1,0.6719236000008095,None,01,001,2023-10-09_11h18.23.939,motor_sequence_learning,2023.1.3,59.80675242112376,
50,c,25,2,102,2,,,,,349.2767736000005,350.2767557999996,350.2767557999996,350.2767557999996,350.2767557999996,350.2767557999996,351.27650879999965,351.27650879999965,c,1,1.9971408000001247,None,01,001,2023-10-09_11h18.23.939,motor_sequence_learning,2023.1.3,59.80675242112376,
-150,z,25,3,103,3,,,,,353.2938861999992,354.29345359999934,354.29345359999934,354.29345359999934,354.29345359999934,354.29345359999934,355.2944926,355.2944926,z,1,0.5025222999993275,None,01,001,2023-10-09_11h18.23.939,motor_sequence_learning,2023.1.3,59.80675242112376,
-50,x,26,0,104,0,,,,,355.8271514999997,356.82777279999937,356.82777279999937,356.82777279999937,356.82777279999937,356.82777279999937,357.82724810000036,357.82724810000036,x,1,0.5039301000015257,None,01,001,2023-10-09_11h18.23.939,motor_sequence_learning,2023.1.3,59.80675242112376,
150,v,26,1,105,1,,,,,358.35973399999966,359.3601011999999,359.3601011999999,359.3601011999999,359.3601011999999,359.3601011999999,360.36077509999996,360.36077509999996,v,1,0.6585047999997187,None,01,001,2023-10-09_11h18.23.939,motor_sequence_learning,2023.1.3,59.80675242112376,
50,c,26,2,106,2,,,,,361.0432772000004,362.04317210000045,362.04317210000045,362.04317210000045,362.04317210000045,362.04317210000045,363.0423728000005,363.0423728000005,c,1,0.9534523999991507,None,01,001,2023-10-09_11h18.23.939,motor_sequence_learning,2023.1.3,59.80675242112376,
-150,z,26,3,107,3,,,,,364.02612170000066,365.01280530000076,365.01280530000076,365.01280530000076,365.01280530000076,365.02609049999955,366.0264647999993,366.0264647999993,z,1,0.5908648999993602,None,01,001,2023-10-09_11h18.23.939,motor_sequence_learning,2023.1.3,59.80675242112376,
-50,x,27,0,108,0,,,,,366.642975499999,367.64312380000047,367.64312380000047,367.64312380000047,367.64312380000047,367.64312380000047,368.64400790000036,368.64400790000036,x,1,0.7807686000014655,None,01,001,2023-10-09_11h18.23.939,motor_sequence_learning,2023.1.3,59.80675242112376,
150,v,27,1,109,1,,,,,369.44393019999916,370.44400399999904,370.44400399999904,370.44400399999904,370.44400399999904,370.44400399999904,371.44351280000046,371.44351280000046,v,1,1.0575909000017418,None,01,001,2023-10-09_11h18.23.939,motor_sequence_learning,2023.1.3,59.80675242112376,
50,c,27,2,110,2,,,,,372.52647570000045,373.5264600999999,373.5264600999999,373.5264600999999,373.5264600999999,373.5264600999999,374.5262674000005,374.5262674000005,c,1,0.7063825000004726,None,01,001,2023-10-09_11h18.23.939,motor_sequence_learning,2023.1.3,59.80675242112376,
-150,z,27,3,111,3,,,,,375.2591823999992,376.24379129999943,376.24379129999943,376.24379129999943,376.24379129999943,376.2605621999992,377.2590717000003,377.2590717000003,z,1,0.6820532000001549,None,01,001,2023-10-09_11h18.23.939,motor_sequence_learning,2023.1.3,59.80675242112376,
-50,x,28,0,112,0,,,,,377.9594849999994,378.9596901999994,378.9596901999994,378.9596901999994,378.9596901999994,378.9596901999994,379.9592188000006,379.9592188000006,x,1,0.634121299999606,None,01,001,2023-10-09_11h18.23.939,motor_sequence_learning,2023.1.3,59.80675242112376,
150,v,28,1,113,1,,,,,380.62581239999963,381.62614699999904,381.62614699999904,381.62614699999904,381.62614699999904,381.62614699999904,382.6255125000007,382.6255125000007,v,1,0.9947209000001749,None,01,001,2023-10-09_11h18.23.939,motor_sequence_learning,2023.1.3,59.80675242112376,
50,c,28,2,114,2,,,,,383.6424690999993,384.64255129999947,384.64255129999947,384.64255129999947,384.64255129999947,384.64255129999947,385.6421922999998,385.6421922999998,c,1,6.850284200001624,None,01,001,2023-10-09_11h18.23.939,motor_sequence_learning,2023.1.3,59.80675242112376,
-150,z,28,3,115,3,,,,,392.50873649999994,393.50964659999954,393.50964659999954,393.50964659999954,393.50964659999954,393.50964659999954,394.50933239999904,394.50933239999904,z,1,0.657326099999409,None,01,001,2023-10-09_11h18.23.939,motor_sequence_learning,2023.1.3,59.80675242112376,
-50,x,29,0,116,0,,,,,395.19245039999987,396.1925613000003,396.1925613000003,396.1925613000003,396.1925613000003,396.1925613000003,397.19171760000063,397.19171760000063,x,1,0.6612667000008514,None,01,001,2023-10-09_11h18.23.939,motor_sequence_learning,2023.1.3,59.80675242112376,
150,v,29,1,117,1,,,,,397.87516700000015,398.8759367999992,398.8759367999992,398.8759367999992,398.8759367999992,398.8759367999992,399.87549469999976,399.87549469999976,v,1,0.7020604999997886,None,01,001,2023-10-09_11h18.23.939,motor_sequence_learning,2023.1.3,59.80675242112376,
50,c,29,2,118,2,,,,,400.6087210000005,401.61516219999976,401.61516219999976,401.61516219999976,401.61516219999976,401.61516219999976,402.6087136999995,402.6087136999995,c,1,0.6437029000007897,None,01,001,2023-10-09_11h18.23.939,motor_sequence_learning,2023.1.3,59.80675242112376,
-150,z,29,3,119,3,,,,,403.27501400000074,404.2757973000007,404.2757973000007,404.2757973000007,404.2757973000007,404.2757973000007,405.2752056999998,405.2752056999998,z,1,0.5899531000013667,None,01,001,2023-10-09_11h18.23.939,motor_sequence_learning,2023.1.3,59.80675242112376,
-50,x,30,0,120,0,,,,,405.89241050000055,406.89228879999973,406.89228879999973,406.89228879999973,406.89228879999973,406.89228879999973,407.8928080000005,407.8928080000005,x,1,0.6024431999994704,None,01,001,2023-10-09_11h18.23.939,motor_sequence_learning,2023.1.3,59.80675242112376,
150,v,30,1,121,1,,,,,408.52536560000044,409.52565219999997,409.52565219999997,409.52565219999997,409.52565219999997,409.52565219999997,410.5277052000001,410.5277052000001,v,1,0.711516200000915,None,01,001,2023-10-09_11h18.23.939,motor_sequence_learning,2023.1.3,59.80675242112376,
50,c,30,2,122,2,,,,,411.2586678000007,412.25902060000044,412.25902060000044,412.25902060000044,412.25902060000044,412.25902060000044,413.25900849999925,413.25900849999925,c,1,0.7062365999991016,None,01,001,2023-10-09_11h18.23.939,motor_sequence_learning,2023.1.3,59.80675242112376,
-150,z,30,3,123,3,,,,,413.99164369999926,414.9929976000003,414.9929976000003,414.9929976000003,414.9929976000003,414.9929976000003,415.9917530999992,415.9917530999992,z,1,0.7642897000005178,None,01,001,2023-10-09_11h18.23.939,motor_sequence_learning,2023.1.3,59.80675242112376,
-50,x,31,0,124,0,,,,,416.77572730000065,417.7755247999994,417.7755247999994,417.7755247999994,417.7755247999994,417.7755247999994,418.7753283000002,418.7753283000002,x,1,0.6230352999991737,None,01,001,2023-10-09_11h18.23.939,motor_sequence_learning,2023.1.3,59.80675242112376,
150,v,31,1,125,1,,,,,419.42508610000004,420.42528479999964,420.42528479999964,420.42528479999964,420.42528479999964,420.42528479999964,421.4249662000002,421.4249662000002,v,1,0.8710740000005899,None,01,001,2023-10-09_11h18.23.939,motor_sequence_learning,2023.1.3,59.80675242112376,
50,c,31,2,126,2,,,,,422.32515109999986,423.3254713999995,423.3254713999995,423.3254713999995,423.3254713999995,423.3254713999995,424.3256149000008,424.3256149000008,c,1,0.6156095000005735,None,01,001,2023-10-09_11h18.23.939,motor_sequence_learning,2023.1.3,59.80675242112376,
-150,z,31,3,127,3,,,,,424.95889290000014,425.9586760000002,425.9586760000002,425.9586760000002,425.9586760000002,425.9586760000002,426.9589128000007,426.9589128000007,z,1,0.6206342000004952,None,01,001,2023-10-09_11h18.23.939,motor_sequence_learning,2023.1.3,59.80675242112376,
-50,x,32,0,128,0,,,,,427.60832870000013,428.6084833999994,428.6084833999994,428.6084833999994,428.6084833999994,428.6084833999994,429.6081854999993,429.6081854999993,x,1,2.085681599999589,None,01,001,2023-10-09_11h18.23.939,motor_sequence_learning,2023.1.3,59.80675242112376,
150,v,32,1,129,1,,,,,431.7247557999999,432.72513660000004,432.72513660000004,432.72513660000004,432.72513660000004,432.72513660000004,433.72522279999976,433.72522279999976,v,1,0.9459655999999086,None,01,001,2023-10-09_11h18.23.939,motor_sequence_learning,2023.1.3,59.80675242112376,
50,c,32,2,130,2,,,,,434.69117200000073,435.69210869999915,435.69210869999915,435.69210869999915,435.69210869999915,435.69210869999915,436.69149760000073,436.69149760000073,c,1,0.7370769999997719,None,01,001,2023-10-09_11h18.23.939,motor_sequence_learning,2023.1.3,59.80675242112376,
-150,z,32,3,131,3,,,,,437.45780150000064,438.4586729999992,438.4586729999992,438.4586729999992,438.4586729999992,438.4586729999992,439.45833350000066,439.45833350000066,z,1,0.615498100001787,None,01,001,2023-10-09_11h18.23.939,motor_sequence_learning,2023.1.3,59.80675242112376,
-50,x,33,0,132,0,,,,,440.0910509000005,441.0919520000007,441.0919520000007,441.0919520000007,441.0919520000007,441.0919520000007,442.09097569999903,442.09097569999903,x,1,0.5946339000001899,None,01,001,2023-10-09_11h18.23.939,motor_sequence_learning,2023.1.3,59.80675242112376,
150,v,33,1,133,1,,,,,442.70799819999957,443.708784299999,443.708784299999,443.708784299999,443.708784299999,443.708784299999,444.69096030000037,444.69096030000037,v,1,1.543547100000069,None,01,001,2023-10-09_11h18.23.939,motor_sequence_learning,2023.1.3,59.80675242112376,
50,c,33,2,134,2,,,,,446.2600091000004,447.2623982999994,447.2623982999994,447.2623982999994,447.2623982999994,447.28119119999974,448.25821069999984,448.25821069999984,v,0,0.6084828000002744,None,01,001,2023-10-09_11h18.23.939,motor_sequence_learning,2023.1.3,59.80675242112376,
-150,z,33,3,135,3,,,,,448.89094040000055,449.8916301999998,449.8916301999998,449.8916301999998,449.8916301999998,449.8916301999998,450.8910715000002,450.8910715000002,z,1,0.706318000000465,None,01,001,2023-10-09_11h18.23.939,motor_sequence_learning,2023.1.3,59.80675242112376,
-50,x,34,0,136,0,,,,,451.6246515999992,452.6247022999996,452.6247022999996,452.6247022999996,452.6247022999996,452.6247022999996,453.6090320000003,453.6090320000003,x,1,1.4385132000006706,None,01,001,2023-10-09_11h18.23.939,motor_sequence_learning,2023.1.3,59.80675242112376,
150,v,34,1,137,1,,,,,455.07589349999944,456.0577487999999,456.0577487999999,456.0577487999999,456.0577487999999,456.09207219999917,457.07444249999935,457.07444249999935,v,1,2.3588533000001917,None,01,001,2023-10-09_11h18.23.939,motor_sequence_learning,2023.1.3,59.80675242112376,
50,c,34,2,138,2,,,,,459.45741459999954,460.4581419999995,460.4581419999995,460.4581419999995,460.4581419999995,460.4581419999995,461.45752100000027,461.45752100000027,c,1,0.7621393000008538,None,01,001,2023-10-09_11h18.23.939,motor_sequence_learning,2023.1.3,59.80675242112376,
-150,z,34,3,139,3,,,,,462.24149679999937,463.22570090000045,463.22570090000045,463.22570090000045,463.22570090000045,463.2434410999995,464.2262264000001,464.2262264000001,z,1,0.5829967000008764,None,01,001,2023-10-09_11h18.23.939,motor_sequence_learning,2023.1.3,59.80675242112376,
-50,x,35,0,140,0,,,,,464.82772900000055,465.82886770000005,465.82886770000005,465.82886770000005,465.82886770000005,465.8421264000008,466.82445989999906,466.82445989999906,x,1,0.6698358000012377,None,01,001,2023-10-09_11h18.23.939,motor_sequence_learning,2023.1.3,59.80675242112376,
150,v,35,1,141,1,,,,,467.5240288999994,468.5247249999993,468.5247249999993,468.5247249999993,468.5247249999993,468.5247249999993,469.5244053999995,469.5244053999995,v,1,0.6631073000007746,None,01,001,2023-10-09_11h18.23.939,motor_sequence_learning,2023.1.3,59.80675242112376,
50,c,35,2,142,2,,,,,470.20727420000003,471.2099441999999,471.2099441999999,471.2099441999999,471.2099441999999,471.2099441999999,472.19141540000055,472.19141540000055,c,1,0.8134300000001531,None,01,001,2023-10-09_11h18.23.939,motor_sequence_learning,2023.1.3,59.80675242112376,
-150,z,35,3,143,3,,,,,473.02461930000027,474.02468769999905,474.02468769999905,474.02468769999905,474.02468769999905,474.02468769999905,475.0252822000002,475.0252822000002,z,1,0.7131669000009424,None,01,001,2023-10-09_11h18.23.939,motor_sequence_learning,2023.1.3,59.80675242112376,
-50,x,36,0,144,0,,,,,475.7584874999993,476.75866359999964,476.75866359999964,476.75866359999964,476.75866359999964,476.75866359999964,477.75743130000046,477.75743130000046,x,1,0.7851496999992378,None,01,001,2023-10-09_11h18.23.939,motor_sequence_learning,2023.1.3,59.80675242112376,
150,v,36,1,145,1,,,,,478.57422439999937,479.57466229999955,479.57466229999955,479.57466229999955,479.57466229999955,479.57466229999955,480.5741945999998,480.5741945999998,v,1,0.8159300000006624,None,01,001,2023-10-09_11h18.23.939,motor_sequence_learning,2023.1.3,59.80675242112376,
50,c,36,2,146,2,,,,,481.40871010000046,482.4089093999992,482.4089093999992,482.4089093999992,482.4089093999992,482.4089093999992,483.4074707,483.4074707,c,1,0.6555992000012338,None,01,001,2023-10-09_11h18.23.939,motor_sequence_learning,2023.1.3,59.80675242112376,
-150,z,36,3,147,3,,,,,484.0913388000008,485.0909793999999,485.0909793999999,485.0909793999999,485.0909793999999,485.0909793999999,486.09118390000003,486.09118390000003,z,1,0.597345199999836,None,01,001,2023-10-09_11h18.23.939,motor_sequence_learning,2023.1.3,59.80675242112376,
-50,x,37,0,148,0,,,,,486.70756579999943,487.70782039999904,487.70782039999904,487.70782039999904,487.70782039999904,487.70782039999904,488.7076348999999,488.7076348999999,x,1,0.58585309999944,None,01,001,2023-10-09_11h18.23.939,motor_sequence_learning,2023.1.3,59.80675242112376,
150,v,37,1,149,1,,,,,489.3239663000004,490.32422170000063,490.32422170000063,490.32422170000063,490.32422170000063,490.32422170000063,491.32545930000015,491.32545930000015,v,1,0.8635082000000693,None,01,001,2023-10-09_11h18.23.939,motor_sequence_learning,2023.1.3,59.80675242112376,
50,c,37,2,150,2,,,,,492.2070506,493.2078094999997,493.2078094999997,493.2078094999997,493.2078094999997,493.2078094999997,494.2067833000001,494.2067833000001,c,1,0.9351650000007794,None,01,001,2023-10-09_11h18.23.939,motor_sequence_learning,2023.1.3,59.80675242112376,
-150,z,37,3,151,3,,,,,495.1737353999997,496.1740418999998,496.1740418999998,496.1740418999998,496.1740418999998,496.1740418999998,497.1739163000002,497.1739163000002,z,1,0.8482960000001185,None,01,001,2023-10-09_11h18.23.939,motor_sequence_learning,2023.1.3,59.80675242112376,
-50,x,38,0,152,0,,,,,498.04018949999954,499.04103009999926,499.04103009999926,499.04103009999926,499.04103009999926,499.04103009999926,500.04017290000047,500.04017290000047,x,1,0.5829970000013418,None,01,001,2023-10-09_11h18.23.939,motor_sequence_learning,2023.1.3,59.80675242112376,
150,v,38,1,153,1,,,,,500.64028999999937,501.6445638999994,501.6445638999994,501.6445638999994,501.6445638999994,501.6445638999994,502.6400856,502.6400856,v,1,0.7656833000019105,None,01,001,2023-10-09_11h18.23.939,motor_sequence_learning,2023.1.3,59.80675242112376,
50,c,38,2,154,2,,,,,503.4233284000002,504.4238172000005,504.4238172000005,504.4238172000005,504.4238172000005,504.4238172000005,505.4287194000008,505.4287194000008,c,1,1.975471200001266,None,01,001,2023-10-09_11h18.23.939,motor_sequence_learning,2023.1.3,59.80675242112376,
-150,z,38,3,155,3,,,,,507.42340630000035,508.4239527999998,508.4239527999998,508.4239527999998,508.4239527999998,508.4239527999998,509.4239507000002,509.4239507000002,z,1,0.5975652000015543,None,01,001,2023-10-09_11h18.23.939,motor_sequence_learning,2023.1.3,59.80675242112376,
-50,x,39,0,156,0,,,,,510.0403004,511.0408602000007,511.0408602000007,511.0408602000007,511.0408602000007,511.0408602000007,512.0404976999998,512.0404976999998,x,1,0.6393024000008154,None,01,001,2023-10-09_11h18.23.939,motor_sequence_learning,2023.1.3,59.80675242112376,
150,v,39,1,157,1,,,,,512.7076397000001,513.7072298000003,513.7072298000003,513.7072298000003,513.7072298000003,513.7072298000003,514.7068443999997,514.7068443999997,v,1,0.9719010000007984,None,01,001,2023-10-09_11h18.23.939,motor_sequence_learning,2023.1.3,59.80675242112376,
50,c,39,2,158,2,,,,,515.707316,516.7076192999994,516.7076192999994,516.7076192999994,516.7076192999994,516.7076192999994,517.7066833999997,517.7066833999997,c,1,0.5748738999991474,None,01,001,2023-10-09_11h18.23.939,motor_sequence_learning,2023.1.3,59.80675242112376,
-150,z,39,3,159,3,,,,,518.3072114999995,519.3073115000007,519.3073115000007,519.3073115000007,519.3073115000007,519.3073115000007,520.3067326,520.3067326,z,1,0.6468942999999854,None,01,001,2023-10-09_11h18.23.939,motor_sequence_learning,2023.1.3,59.80675242112376,
-50,x,40,0,160,0,,,,,520.9730748999991,521.9739198000007,521.9739198000007,521.9739198000007,521.9739198000007,521.9739198000007,522.9730789000005,522.9730789000005,x,1,0.6162561000001006,None,01,001,2023-10-09_11h18.23.939,motor_sequence_learning,2023.1.3,59.80675242112376,
150,v,40,1,161,1,,,,,523.6064838999991,524.6068728999999,524.6068728999999,524.6068728999999,524.6068728999999,524.6068728999999,525.6060840999999,525.6060840999999,v,1,0.7582528999992064,None,01,001,2023-10-09_11h18.23.939,motor_sequence_learning,2023.1.3,59.80675242112376,
50,c,40,2,162,2,,,,,526.3905233000005,527.3900833999996,527.3900833999996,527.3900833999996,527.3900833999996,527.3900833999996,528.3902022000002,528.3902022000002,c,1,1.8262047000007442,None,01,001,2023-10-09_11h18.23.939,motor_sequence_learning,2023.1.3,59.80675242112376,
-150,z,40,3,163,3,,,,,530.2400756999996,531.2404119000003,531.2404119000003,531.2404119000003,531.2404119000003,531.2404119000003,532.2402340000008,532.2402340000008,z,1,1.238057000000481,None,01,001,2023-10-09_11h18.23.939,motor_sequence_learning,2023.1.3,59.80675242112376,
-50,x,41,0,164,0,,,,,533.5065768999993,534.5068289999999,534.5068289999999,534.5068289999999,534.5068289999999,534.5068289999999,535.5060097000005,535.5060097000005,x,1,0.5887602000002516,None,01,001,2023-10-09_11h18.23.939,motor_sequence_learning,2023.1.3,59.80675242112376,
150,v,41,1,165,1,,,,,536.1230218000001,537.1235574999992,537.1235574999992,537.1235574999992,537.1235574999992,537.1235574999992,538.1229590999992,538.1229590999992,v,1,1.2461495000006835,None,01,001,2023-10-09_11h18.23.939,motor_sequence_learning,2023.1.3,59.80675242112376,
50,c,41,2,166,2,,,,,539.3901430000005,540.3901836999994,540.3901836999994,540.3901836999994,540.3901836999994,540.3901836999994,541.3900962999996,541.3900962999996,c,1,1.0440450000005512,None,01,001,2023-10-09_11h18.23.939,motor_sequence_learning,2023.1.3,59.80675242112376,
-150,z,41,3,167,3,,,,,542.4565628,543.4566223999991,543.4566223999991,543.4566223999991,543.4566223999991,543.4566223999991,544.4558261000002,544.4558261000002,z,1,2.6763885999989725,None,01,001,2023-10-09_11h18.23.939,motor_sequence_learning,2023.1.3,59.80675242112376,
-50,x,42,0,168,0,,,,,547.1563310999991,548.1569134000001,548.1569134000001,548.1569134000001,548.1569134000001,548.1569134000001,549.1559801000003,549.1559801000003,x,1,0.6014365000010002,None,01,001,2023-10-09_11h18.23.939,motor_sequence_learning,2023.1.3,59.80675242112376,
150,v,42,1,169,1,,,,,549.7890411000008,550.7897111000002,550.7897111000002,550.7897111000002,550.7897111000002,550.7897111000002,551.7898679999998,551.7898679999998,v,1,0.7581712999999581,None,01,001,2023-10-09_11h18.23.939,motor_sequence_learning,2023.1.3,59.80675242112376,
50,c,42,2,170,2,,,,,552.5725091999993,553.5734639999991,553.5734639999991,553.5734639999991,553.5734639999991,553.5734639999991,554.5726508999996,554.5726508999996,c,1,0.7784300000002986,None,01,001,2023-10-09_11h18.23.939,motor_sequence_learning,2023.1.3,59.80675242112376,
-150,z,42,3,171,3,,,,,555.3722140999998,556.3730152999997,556.3730152999997,556.3730152999997,556.3730152999997,556.3730152999997,557.3729031000003,557.3729031000003,z,1,0.5977569999995467,None,01,001,2023-10-09_11h18.23.939,motor_sequence_learning,2023.1.3,59.80675242112376,
-50,x,43,0,172,0,,,,,557.9891666000003,558.989674299999,558.989674299999,558.989674299999,558.989674299999,558.989674299999,559.9891733000004,559.9891733000004,x,1,0.6123348999990412,None,01,001,2023-10-09_11h18.23.939,motor_sequence_learning,2023.1.3,59.80675242112376,
150,v,43,1,173,1,,,,,560.6223948999996,561.6232894999994,561.6232894999994,561.6232894999994,561.6232894999994,561.6232894999994,562.6226757000004,562.6226757000004,v,1,0.9845365000001038,None,01,001,2023-10-09_11h18.23.939,motor_sequence_learning,2023.1.3,59.80675242112376,
50,c,43,2,174,2,,,,,563.6393005999998,564.6234177000006,564.6234177000006,564.6234177000006,564.6234177000006,564.6403532999993,565.6389405999998,565.6389405999998,c,1,0.6860230000002048,None,01,001,2023-10-09_11h18.23.939,motor_sequence_learning,2023.1.3,59.80675242112376,
-150,z,43,3,175,3,,,,,566.3556920999999,567.3568931999998,567.3568931999998,567.3568931999998,567.3568931999998,567.3568931999998,568.3555016999999,568.3555016999999,z,1,1.5085663000008935,None,01,001,2023-10-09_11h18.23.939,motor_sequence_learning,2023.1.3,59.80675242112376,
-50,x,44,0,176,0,,,,,569.8891791000005,570.8894899000006,570.8894899000006,570.8894899000006,570.8894899000006,570.8894899000006,571.8890265999999,571.8890265999999,x,1,1.2465296000009403,None,01,001,2023-10-09_11h18.23.939,motor_sequence_learning,2023.1.3,59.80675242112376,
150,v,44,1,177,1,,,,,573.1552761000003,574.1567940000004,574.1567940000004,574.1567940000004,574.1567940000004,574.1567940000004,575.1555155000005,575.1555155000005,c,0,2.1720120000009047,None,01,001,2023-10-09_11h18.23.939,motor_sequence_learning,2023.1.3,59.80675242112376,
50,c,44,2,178,2,,,,,577.355430399999,578.356365399999,578.356365399999,578.356365399999,578.356365399999,578.356365399999,579.3558788999999,579.3558788999999,c,1,0.6498850999996648,None,01,001,2023-10-09_11h18.23.939,motor_sequence_learning,2023.1.3,59.80675242112376,
-150,z,44,3,179,3,,,,,580.0221743999991,581.0224414000004,581.0224414000004,581.0224414000004,581.0224414000004,581.0224414000004,582.0220386000001,582.0220386000001,z,1,1.9905971999996837,None,01,001,2023-10-09_11h18.23.939,motor_sequence_learning,2023.1.3,59.80675242112376,
-50,x,45,0,180,0,,,,,584.0390998000003,585.0233083000003,585.0233083000003,585.0233083000003,585.0233083000003,585.0395929999995,586.0389985999991,586.0389985999991,x,1,0.6155983999997261,None,01,001,2023-10-09_11h18.23.939,motor_sequence_learning,2023.1.3,59.80675242112376,
150,v,45,1,181,1,,,,,586.6719929999999,587.6727229000007,587.6727229000007,587.6727229000007,587.6727229000007,587.6727229000007,588.6721373,588.6721373,v,1,0.9761059000011301,None,01,001,2023-10-09_11h18.23.939,motor_sequence_learning,2023.1.3,59.80675242112376,
50,c,45,2,182,2,,,,,589.6720628999992,590.6727659000007,590.6727659000007,590.6727659000007,590.6727659000007,590.6727659000007,591.6722604999995,591.6722604999995,c,1,15.679336699999112,None,01,001,2023-10-09_11h18.23.939,motor_sequence_learning,2023.1.3,59.80675242112376,
-150,z,45,3,183,3,,,,,607.3716134999995,608.3724524999998,608.3724524999998,608.3724524999998,608.3724524999998,608.3724524999998,609.3717632999997,609.3717632999997,z,1,1.4072415999999066,None,01,001,2023-10-09_11h18.23.939,motor_sequence_learning,2023.1.3,59.80675242112376,
-50,x,46,0,184,0,,,,,610.8051548000003,611.8062231000004,611.8062231000004,611.8062231000004,611.8062231000004,611.8062231000004,612.8048266000005,612.8048266000005,x,1,0.753890500000125,None,01,001,2023-10-09_11h18.23.939,motor_sequence_learning,2023.1.3,59.80675242112376,
150,v,46,1,185,1,,,,,613.5881353000004,614.5885734999993,614.5885734999993,614.5885734999993,614.5885734999993,614.5885734999993,615.5880404,615.5880404,v,1,1.2119443000010506,None,01,001,2023-10-09_11h18.23.939,motor_sequence_learning,2023.1.3,59.80675242112376,
50,c,46,2,186,2,,,,,616.8211897000001,617.821527099999,617.821527099999,617.821527099999,617.821527099999,617.821527099999,618.8221527999995,618.8221527999995,c,1,0.9690715000015189,None,01,001,2023-10-09_11h18.23.939,motor_sequence_learning,2023.1.3,59.80675242112376,
-150,z,46,3,187,3,,,,,619.8216575000006,620.8051154999994,620.8051154999994,620.8051154999994,620.8051154999994,620.8220022999994,621.8223866000008,621.8223866000008,z,1,0.991457400001309,None,01,001,2023-10-09_11h18.23.939,motor_sequence_learning,2023.1.3,59.80675242112376,
-50,x,47,0,188,0,,,,,622.8382225000005,623.8386494999995,623.8386494999995,623.8386494999995,623.8386494999995,623.8386494999995,624.8378119999998,624.8378119999998,x,1,0.8432076000008237,None,01,001,2023-10-09_11h18.23.939,motor_sequence_learning,2023.1.3,59.80675242112376,
150,v,47,1,189,1,,,,,625.7046535999998,626.7048458999998,626.7048458999998,626.7048458999998,626.7048458999998,626.7048458999998,627.7047517999999,627.7047517999999,v,1,0.8175480000008974,None,01,001,2023-10-09_11h18.23.939,motor_sequence_learning,2023.1.3,59.80675242112376,
50,c,47,2,190,2,,,,,628.5381299000001,629.5383834999993,629.5383834999993,629.5383834999993,629.5383834999993,629.5383834999993,630.5379885000002,630.5379885000002,c,1,1.083203100000901,None,01,001,2023-10-09_11h18.23.939,motor_sequence_learning,2023.1.3,59.80675242112376,
-150,z,47,3,191,3,,,,,631.6381235000008,632.6383667999999,632.6383667999999,632.6383667999999,632.6383667999999,632.6383667999999,633.6372164999993,633.6372164999993,z,1,0.8104756000011548,None,01,001,2023-10-09_11h18.23.939,motor_sequence_learning,2023.1.3,59.80675242112376,
-50,x,48,0,192,0,,,,,634.4713308999999,635.4716728999992,635.4716728999992,635.4716728999992,635.4716728999992,635.4716728999992,636.4714045000001,636.4714045000001,x,1,0.6118117000005441,None,01,001,2023-10-09_11h18.23.939,motor_sequence_learning,2023.1.3,59.80675242112376,
150,v,48,1,193,1,,,,,637.1047058999993,638.1078309999994,638.1078309999994,638.1078309999994,638.1078309999994,638.1078309999994,639.1042737000007,639.1042737000007,v,1,1.9308151000004727,None,01,001,2023-10-09_11h18.23.939,motor_sequence_learning,2023.1.3,59.80675242112376,
50,c,48,2,194,2,,,,,641.0542217999991,642.0550151000007,642.0550151000007,642.0550151000007,642.0550151000007,642.0550151000007,643.0540430000001,643.0540430000001,c,1,0.8477973000008205,None,01,001,2023-10-09_11h18.23.939,motor_sequence_learning,2023.1.3,59.80675242112376,
-150,z,48,3,195,3,,,,,643.9207972999993,644.9213172,644.9213172,644.9213172,644.9213172,644.9213172,645.9215101999998,645.9215101999998,z,1,0.7837635000014416,None,01,001,2023-10-09_11h18.23.939,motor_sequence_learning,2023.1.3,59.80675242112376,
-50,x,49,0,196,0,,,,,646.7374674000002,647.7382142000006,647.7382142000006,647.7382142000006,647.7382142000006,647.7382142000006,648.7378721999994,648.7378721999994,x,1,0.6815561000003072,None,01,001,2023-10-09_11h18.23.939,motor_sequence_learning,2023.1.3,59.80675242112376,
150,v,49,1,197,1,,,,,649.4373310999999,650.4382016,650.4382016,650.4382016,650.4382016,650.4382016,651.4376334000008,651.4376334000008,v,1,0.7702139000011812,None,01,001,2023-10-09_11h18.23.939,motor_sequence_learning,2023.1.3,59.80675242112376,
50,c,49,2,198,2,,,,,652.2376296000002,653.2385572000003,653.2385572000003,653.2385572000003,653.2385572000003,653.2385572000003,654.2376332999993,654.2376332999993,c,1,1.8901163999998971,None,01,001,2023-10-09_11h18.23.939,motor_sequence_learning,2023.1.3,59.80675242112376,
-150,z,49,3,199,3,,,,,656.1538421000005,657.1542991000006,657.1542991000006,657.1542991000006,657.1542991000006,657.1542991000006,658.1549407999992,658.1549407999992,z,1,0.63314790000004,None,01,001,2023-10-09_11h18.23.939,motor_sequence_learning,2023.1.3,59.80675242112376,
50,c,,,,,0,0,0,2,658.8196714999995,659.804209599999,659.804209599999,659.804209599999,659.804209599999,659.8206647000006,660.80422,660.80422,c,1,0.7118874999996478,None,01,001,2023-10-09_11h18.23.939,motor_sequence_learning,2023.1.3,59.80675242112376,
50,c,,,,,0,1,1,2,661.5375893,662.5377198999995,662.5377198999995,662.5377198999995,662.5377198999995,662.5377198999995,663.538092499999,663.538092499999,c,1,1.2592924000000494,None,01,001,2023-10-09_11h18.23.939,motor_sequence_learning,2023.1.3,59.80675242112376,
150,v,,,,,0,2,2,1,664.8209466999997,665.8206976999991,665.8206976999991,665.8206976999991,665.8206976999991,665.8206976999991,666.8204690000002,666.8204690000002,v,1,0.7340014000001247,None,01,001,2023-10-09_11h18.23.939,motor_sequence_learning,2023.1.3,59.80675242112376,
-50,x,,,,,0,3,3,0,667.5705668999999,668.5747496000004,668.5747496000004,668.5747496000004,668.5747496000004,668.5747496000004,669.5704459999997,669.5704459999997,x,1,1.1305381000001944,None,01,001,2023-10-09_11h18.23.939,motor_sequence_learning,2023.1.3,59.80675242112376,
50,c,,,,,1,0,4,2,670.7207672999994,671.7208484000002,671.7208484000002,671.7208484000002,671.7208484000002,671.7208484000002,672.7205317000007,672.7205317000007,c,1,0.725055799999609,None,01,001,2023-10-09_11h18.23.939,motor_sequence_learning,2023.1.3,59.80675242112376,
150,v,,,,,1,1,5,1,673.4702266000004,674.4707737000008,674.4707737000008,674.4707737000008,674.4707737000008,674.4707737000008,675.4708358999997,675.4708358999997,v,1,0.6757008999993559,None,01,001,2023-10-09_11h18.23.939,motor_sequence_learning,2023.1.3,59.80675242112376,
-50,x,,,,,1,2,6,0,676.1702918999999,677.1703837999994,677.1703837999994,677.1703837999994,677.1703837999994,677.1703837999994,678.1702411000006,678.1702411000006,x,1,0.7900840999991487,None,01,001,2023-10-09_11h18.23.939,motor_sequence_learning,2023.1.3,59.80675242112376,
150,v,,,,,1,3,7,1,678.9868318000008,679.9877495000001,679.9877495000001,679.9877495000001,679.9877495000001,679.9877495000001,680.9870496000003,680.9870496000003,v,1,1.4321734999994078,None,01,001,2023-10-09_11h18.23.939,motor_sequence_learning,2023.1.3,59.80675242112376,
-150,z,,,,,2,0,8,3,682.4378149999993,683.4375798000001,683.4375798000001,683.4375798000001,683.4375798000001,683.4375798000001,684.4370402000004,684.4370402000004,z,1,0.7568659000007756,None,01,001,2023-10-09_11h18.23.939,motor_sequence_learning,2023.1.3,59.80675242112376,
150,v,,,,,2,1,9,1,685.2208460000002,686.2204435000003,686.2204435000003,686.2204435000003,686.2204435000003,686.2204435000003,687.2201389999991,687.2201389999991,v,1,0.9409052999999403,None,01,001,2023-10-09_11h18.23.939,motor_sequence_learning,2023.1.3,59.80675242112376,
150,v,,,,,2,2,10,1,688.1863849999991,689.18685,689.18685,689.18685,689.18685,689.18685,690.1872590000003,690.1872590000003,v,1,0.6459531999989849,None,01,001,2023-10-09_11h18.23.939,motor_sequence_learning,2023.1.3,59.80675242112376,
-150,z,,,,,2,3,11,3,690.8533790000001,691.8538976,691.8538976,691.8538976,691.8538976,691.8538976,692.8535274000005,692.8535274000005,z,1,1.3719223000007332,None,01,001,2023-10-09_11h18.23.939,motor_sequence_learning,2023.1.3,59.80675242112376,
50,c,,,,,3,0,12,2,694.2540750000007,695.2538886999992,695.2538886999992,695.2538886999992,695.2538886999992,695.2538886999992,696.2535372999992,696.2535372999992,c,1,0.6137859000009485,None,01,001,2023-10-09_11h18.23.939,motor_sequence_learning,2023.1.3,59.80675242112376,
150,v,,,,,3,1,13,1,696.8869479000005,697.886955599999,697.886955599999,697.886955599999,697.886955599999,697.886955599999,698.8703994999996,698.8703994999996,v,1,0.9634851999999228,None,01,001,2023-10-09_11h18.23.939,motor_sequence_learning,2023.1.3,59.80675242112376,
-50,x,,,,,3,2,14,0,699.8536186999991,700.8536619000006,700.8536619000006,700.8536619000006,700.8536619000006,700.8536619000006,701.8535133999994,701.8535133999994,x,1,0.7034327000001213,None,01,001,2023-10-09_11h18.23.939,motor_sequence_learning,2023.1.3,59.80675242112376,
-50,x,,,,,3,3,15,0,702.5860997,703.5869948,703.5869948,703.5869948,703.5869948,703.5869948,704.5865661999997,704.5865661999997,x,1,1.6730881000003137,None,01,001,2023-10-09_11h18.23.939,motor_sequence_learning,2023.1.3,59.80675242112376,
150,v,,,,,4,0,16,1,706.2869413999997,707.2871302999993,707.2871302999993,707.2871302999993,707.2871302999993,707.2871302999993,708.2864919999993,708.2864919999993,v,1,1.285959199998615,None,01,001,2023-10-09_11h18.23.939,motor_sequence_learning,2023.1.3,59.80675242112376,
-50,x,,,,,4,1,17,0,709.6032620999995,710.6035489000005,710.6035489000005,710.6035489000005,710.6035489000005,710.6035489000005,711.6034760000002,711.6034760000002,x,1,0.6224371000007523,None,01,001,2023-10-09_11h18.23.939,motor_sequence_learning,2023.1.3,59.80675242112376,
-50,x,,,,,4,2,18,0,712.2532742000003,713.2533807,713.2533807,713.2533807,713.2533807,713.2533807,714.2537950000005,714.2537950000005,x,1,0.6130735999995522,None,01,001,2023-10-09_11h18.23.939,motor_sequence_learning,2023.1.3,59.80675242112376,
50,c,,,,,4,3,19,2,714.8868672000008,715.8869586000001,715.8869586000001,715.8869586000001,715.8869586000001,715.8869586000001,716.8868117000002,716.8868117000002,c,1,0.6120413000007829,None,01,001,2023-10-09_11h18.23.939,motor_sequence_learning,2023.1.3,59.80675242112376,
-50,x,,,,,5,0,20,0,717.5194943999995,718.519930299999,718.519930299999,718.519930299999,718.519930299999,718.519930299999,719.5195320999992,719.5195320999992,x,1,0.8831472999991092,None,01,001,2023-10-09_11h18.23.939,motor_sequence_learning,2023.1.3,59.80675242112376,
50,c,,,,,5,1,21,2,720.4193001000003,721.4200977,721.4200977,721.4200977,721.4200977,721.4200977,722.4198247000004,722.4198247000004,c,1,0.8261247999998886,None,01,001,2023-10-09_11h18.23.939,motor_sequence_learning,2023.1.3,59.80675242112376,
-150,z,,,,,5,2,22,3,723.2696099000004,724.2698722999994,724.2698722999994,724.2698722999994,724.2698722999994,724.2698722999994,725.2699219000006,725.2699219000006,z,1,0.5967530000016268,None,01,001,2023-10-09_11h18.23.939,motor_sequence_learning,2023.1.3,59.80675242112376,
50,c,,,,,5,3,23,2,725.8859296999999,726.8864374999994,726.8864374999994,726.8864374999994,726.8864374999994,726.8864374999994,727.8860991999991,727.8860991999991,c,1,0.6958622000001924,None,01,001,2023-10-09_11h18.23.939,motor_sequence_learning,2023.1.3,59.80675242112376,
-50,x,,,,,6,0,24,0,728.6035699999993,729.6032976000006,729.6032976000006,729.6032976000006,729.6032976000006,729.6032976000006,730.6031461999992,730.6031461999992,x,1,0.6273187999995571,None,01,001,2023-10-09_11h18.23.939,motor_sequence_learning,2023.1.3,59.80675242112376,
150,v,,,,,6,1,25,1,731.2528915999992,732.2532582999993,732.2532582999993,732.2532582999993,732.2532582999993,732.2532582999993,733.252916899999,733.252916899999,v,1,0.6527057999992394,None,01,001,2023-10-09_11h18.23.939,motor_sequence_learning,2023.1.3,59.80675242112376,
50,c,,,,,6,2,26,2,733.9366147000001,734.9366143999996,734.9366143999996,734.9366143999996,734.9366143999996,734.9366143999996,735.9360128999997,735.9360128999997,c,1,3.2049807000003057,None,01,001,2023-10-09_11h18.23.939,motor_sequence_learning,2023.1.3,59.80675242112376,
50,c,,,,,6,3,27,2,739.1698213,740.1698441999997,740.1698441999997,740.1698441999997,740.1698441999997,740.1698441999997,741.1699260000005,741.1699260000005,c,1,0.7296476000010443,None,01,001,2023-10-09_11h18.23.939,motor_sequence_learning,2023.1.3,59.80675242112376,
50,c,,,,,7,0,28,2,741.9191401000007,742.9195825999996,742.9195825999996,742.9195825999996,742.9195825999996,742.9195825999996,743.9193637000008,743.9193637000008,v,0,0.5511692999989464,None,01,001,2023-10-09_11h18.23.939,motor_sequence_learning,2023.1.3,59.80675242112376,
150,v,,,,,7,1,29,1,744.4855659000004,745.4862668999995,745.4862668999995,745.4862668999995,745.4862668999995,745.4862668999995,746.4859039000003,746.4859039000003,v,1,1.1376005000001896,None,01,001,2023-10-09_11h18.23.939,motor_sequence_learning,2023.1.3,59.80675242112376,
150,v,,,,,7,2,30,1,747.6526443999992,748.6527657999995,748.6527657999995,748.6527657999995,748.6527657999995,748.6527657999995,749.6529649000004,749.6529649000004,v,1,0.8042863000009675,None,01,001,2023-10-09_11h18.23.939,motor_sequence_learning,2023.1.3,59.80675242112376,
50,c,,,,,7,3,31,2,750.4862678999998,751.4863753999998,751.4863753999998,751.4863753999998,751.4863753999998,751.4863753999998,752.4857300999993,752.4857300999993,v,0,0.9496472999999241,None,01,001,2023-10-09_11h18.23.939,motor_sequence_learning,2023.1.3,59.80675242112376,
-150,z,,,,,8,0,32,3,753.4522589000007,754.4565072999994,754.4565072999994,754.4565072999994,754.4565072999994,754.4565072999994,755.4527321999994,755.4527321999994,z,1,0.6660057999997662,None,01,001,2023-10-09_11h18.23.939,motor_sequence_learning,2023.1.3,59.80675242112376,
150,v,,,,,8,1,33,1,756.1356847999996,757.135956099999,757.135956099999,757.135956099999,757.135956099999,757.135956099999,758.1355413000001,758.1355413000001,v,1,0.6868286000008084,None,01,001,2023-10-09_11h18.23.939,motor_sequence_learning,2023.1.3,59.80675242112376,
-50,x,,,,,8,2,34,0,758.8521399000001,759.8525700999999,759.8525700999999,759.8525700999999,759.8525700999999,759.8525700999999,760.8522916999991,760.8522916999991,x,1,0.676175599999624,None,01,001,2023-10-09_11h18.23.939,motor_sequence_learning,2023.1.3,59.80675242112376,
150,v,,,,,8,3,35,1,761.5522615999998,762.5524385999997,762.5524385999997,762.5524385999997,762.5524385999997,762.5524385999997,763.5526764000006,763.5526764000006,v,1,1.110098500001186,None,01,001,2023-10-09_11h18.23.939,motor_sequence_learning,2023.1.3,59.80675242112376,
-150,z,,,,,9,0,36,3,764.6857149999996,765.6859038000002,765.6859038000002,765.6859038000002,765.6859038000002,765.6859038000002,766.6855082999991,766.6855082999991,z,1,0.6733688000003895,None,01,001,2023-10-09_11h18.23.939,motor_sequence_learning,2023.1.3,59.80675242112376,
-150,z,,,,,9,1,37,3,767.3847420000002,768.3858137999996,768.3858137999996,768.3858137999996,768.3858137999996,768.3858137999996,769.3850077999996,769.3850077999996,z,1,1.944432100000995,None,01,001,2023-10-09_11h18.23.939,motor_sequence_learning,2023.1.3,59.80675242112376,
-50,x,,,,,9,2,38,0,771.3524228000006,772.3530133000004,772.3530133000004,772.3530133000004,772.3530133000004,772.3530133000004,773.3523750999993,773.3523750999993,x,1,0.6262845000001107,None,01,001,2023-10-09_11h18.23.939,motor_sequence_learning,2023.1.3,59.80675242112376,
150,v,,,,,9,3,39,1,774.0019374000003,775.0029847000005,775.0029847000005,775.0029847000005,775.0029847000005,775.0029847000005,776.0031550000003,776.0031550000003,v,1,0.8306475999997929,None,01,001,2023-10-09_11h18.23.939,motor_sequence_learning,2023.1.3,59.80675242112376,
50,c,,,,,10,0,40,2,776.8520430000008,777.8523107000001,777.8523107000001,777.8523107000001,777.8523107000001,777.8523107000001,778.8522250999995,778.8522250999995,c,1,2.2305845000009867,None,01,001,2023-10-09_11h18.23.939,motor_sequence_learning,2023.1.3,59.80675242112376,
150,v,,,,,10,1,41,1,781.1020645000008,782.1025917000006,782.1025917000006,782.1025917000006,782.1025917000006,782.1025917000006,783.1020573999995,783.1020573999995,v,1,0.7671383000015339,None,01,001,2023-10-09_11h18.23.939,motor_sequence_learning,2023.1.3,59.80675242112376,
-50,x,,,,,10,2,42,0,783.8851558000006,784.8854922999999,784.8854922999999,784.8854922999999,784.8854922999999,784.8854922999999,785.8855132999997,785.8855132999997,x,1,0.8304059000001871,None,01,001,2023-10-09_11h18.23.939,motor_sequence_learning,2023.1.3,59.80675242112376,
-150,z,,,,,10,3,43,3,786.7352998000006,787.7356681000001,787.7356681000001,787.7356681000001,787.7356681000001,787.7356681000001,788.7350353000002,788.7350353000002,z,1,1.182804900001429,None,01,001,2023-10-09_11h18.23.939,motor_sequence_learning,2023.1.3,59.80675242112376,
150,v,,,,,11,0,44,1,789.9356317999991,790.9354550000007,790.9354550000007,790.9354550000007,790.9354550000007,790.9354550000007,791.9351397999999,791.9351397999999,v,1,0.7367733000010048,None,01,001,2023-10-09_11h18.23.939,motor_sequence_learning,2023.1.3,59.80675242112376,
50,c,,,,,11,1,45,2,792.7017677999993,793.7024461000001,793.7024461000001,793.7024461000001,793.7024461000001,793.7024461000001,794.7017345000004,794.7017345000004,c,1,2.1731409000003623,None,01,001,2023-10-09_11h18.23.939,motor_sequence_learning,2023.1.3,59.80675242112376,
-50,x,,,,,11,2,46,0,796.9016401999997,797.902016,797.902016,797.902016,797.902016,797.902016,798.9020877000003,798.9020877000003,x,1,0.6466963000002579,None,01,001,2023-10-09_11h18.23.939,motor_sequence_learning,2023.1.3,59.80675242112376,
-50,x,,,,,11,3,47,0,799.5684765999995,800.5726876999997,800.5726876999997,800.5726876999997,800.5726876999997,800.5726876999997,801.5686107999991,801.5686107999991,x,1,0.6701447000014014,None,01,001,2023-10-09_11h18.23.939,motor_sequence_learning,2023.1.3,59.80675242112376,
-50,x,,,,,12,0,48,0,802.2681959999991,803.2686783999998,803.2686783999998,803.2686783999998,803.2686783999998,803.2686783999998,804.268721299999,804.268721299999,x,1,0.8543446000003314,None,01,001,2023-10-09_11h18.23.939,motor_sequence_learning,2023.1.3,59.80675242112376,
-150,z,,,,,12,1,49,3,805.1512003000007,806.1518311,806.1518311,806.1518311,806.1518311,806.1518311,807.1517896999994,807.1517896999994,z,1,0.7579399000005651,None,01,001,2023-10-09_11h18.23.939,motor_sequence_learning,2023.1.3,59.80675242112376,
-50,x,,,,,12,2,50,0,807.9344954999997,808.9349414999997,808.9349414999997,808.9349414999997,808.9349414999997,808.9349414999997,809.9349168999997,809.9349168999997,x,1,1.1197869000006904,None,01,001,2023-10-09_11h18.23.939,motor_sequence_learning,2023.1.3,59.80675242112376,
-50,x,,,,,12,3,51,0,811.0850451000006,812.0849911000005,812.0849911000005,812.0849911000005,812.0849911000005,812.0849911000005,813.0845456999996,813.0845456999996,x,1,0.5517249000004085,None,01,001,2023-10-09_11h18.23.939,motor_sequence_learning,2023.1.3,59.80675242112376,
-50,x,,,,,13,0,52,0,813.6679186000001,814.6684413999992,814.6684413999992,814.6684413999992,814.6684413999992,814.6684413999992,815.6681131000005,815.6681131000005,x,1,0.7001239000001078,None,01,001,2023-10-09_11h18.23.939,motor_sequence_learning,2023.1.3,59.80675242112376,
-50,x,,,,,13,1,53,0,816.3850039999998,817.3852361999998,817.3852361999998,817.3852361999998,817.3852361999998,817.3852361999998,818.3858564999991,818.3858564999991,x,1,0.6415407000004052,None,01,001,2023-10-09_11h18.23.939,motor_sequence_learning,2023.1.3,59.80675242112376,
-150,z,,,,,13,2,54,3,819.0515156999991,820.0514953000002,820.0514953000002,820.0514953000002,820.0514953000002,820.0514953000002,821.0513895000004,821.0513895000004,z,1,0.7181514000003517,None,01,001,2023-10-09_11h18.23.939,motor_sequence_learning,2023.1.3,59.80675242112376,
50,c,,,,,13,3,55,2,821.8009531000007,822.8016019999995,822.8016019999995,822.8016019999995,822.8016019999995,822.8016019999995,823.8041780000003,823.8041780000003,c,1,1.0518809000004694,None,01,001,2023-10-09_11h18.23.939,motor_sequence_learning,2023.1.3,59.80675242112376,
50,c,,,,,14,0,56,2,824.8841845999996,825.8848476999992,825.8848476999992,825.8848476999992,825.8848476999992,825.8848476999992,826.8842256000007,826.8842256000007,v,0,0.6886974000008195,None,01,001,2023-10-09_11h18.23.939,motor_sequence_learning,2023.1.3,59.80675242112376,
-150,z,,,,,14,1,57,3,827.601428599999,828.6015557999999,828.6015557999999,828.6015557999999,828.6015557999999,828.6015557999999,829.6014658999993,829.6014658999993,z,1,0.5895514000003459,None,01,001,2023-10-09_11h18.23.939,motor_sequence_learning,2023.1.3,59.80675242112376,
50,c,,,,,14,2,58,2,830.2177683999998,831.2014916999997,831.2014916999997,831.2014916999997,831.2014916999997,831.2182224000007,832.2176667999993,832.2176667999993,c,1,1.1032584000004135,None,01,001,2023-10-09_11h18.23.939,motor_sequence_learning,2023.1.3,59.80675242112376,
50,c,,,,,14,3,59,2,833.3511175000003,834.3516292999993,834.3516292999993,834.3516292999993,834.3516292999993,834.3516292999993,835.3371055000007,835.3371055000007,c,1,0.7966852999998082,None,01,001,2023-10-09_11h18.23.939,motor_sequence_learning,2023.1.3,59.80675242112376,
-50,x,,,,,15,0,60,0,836.1513328000001,837.1512143,837.1512143,837.1512143,837.1512143,837.1512143,838.1514005999998,838.1514005999998,x,1,1.4479747999994288,None,01,001,2023-10-09_11h18.23.939,motor_sequence_learning,2023.1.3,59.80675242112376,
50,c,,,,,15,1,61,2,839.6169833999993,840.6178220999991,840.6178220999991,840.6178220999991,840.6178220999991,840.6178220999991,841.6181496999998,841.6181496999998,c,1,1.275922200000423,None,01,001,2023-10-09_11h18.23.939,motor_sequence_learning,2023.1.3,59.80675242112376,
50,c,,,,,15,2,62,2,842.9172899999994,843.9179968000008,843.9179968000008,843.9179968000008,843.9179968000008,843.9179968000008,844.9173477000004,844.9173477000004,c,1,0.5566959000007046,None,01,001,2023-10-09_11h18.23.939,motor_sequence_learning,2023.1.3,59.80675242112376,
-150,z,,,,,15,3,63,3,845.5011933000005,846.5011276000005,846.5011276000005,846.5011276000005,846.5011276000005,846.5011276000005,847.5008120999992,847.5008120999992,z,1,0.6057201000003261,None,01,001,2023-10-09_11h18.23.939,motor_sequence_learning,2023.1.3,59.80675242112376,
-150,z,,,,,16,0,64,3,848.1337392000005,849.1347289999994,849.1347289999994,849.1347289999994,849.1347289999994,849.1347289999994,850.1342031000004,850.1342031000004,z,1,0.5433754000005138,None,01,001,2023-10-09_11h18.23.939,motor_sequence_learning,2023.1.3,59.80675242112376,
50,c,,,,,16,1,65,2,850.700782599999,851.7013408000003,851.7013408000003,851.7013408000003,851.7013408000003,851.7013408000003,852.7008287999997,852.7008287999997,c,1,0.6699322999993456,None,01,001,2023-10-09_11h18.23.939,motor_sequence_learning,2023.1.3,59.80675242112376,
-150,z,,,,,16,2,66,3,853.4005096000001,854.4010263,854.4010263,854.4010263,854.4010263,854.4010263,855.400843899999,855.400843899999,z,1,0.6487104000007093,None,01,001,2023-10-09_11h18.23.939,motor_sequence_learning,2023.1.3,59.80675242112376,
-150,z,,,,,16,3,67,3,856.0668604999992,857.0674789999994,857.0674789999994,857.0674789999994,857.0674789999994,857.0674789999994,858.0670544000004,858.0670544000004,z,1,0.575358199999755,None,01,001,2023-10-09_11h18.23.939,motor_sequence_learning,2023.1.3,59.80675242112376,
50,c,,,,,17,0,68,2,858.6671224999991,859.6678721000007,859.6678721000007,859.6678721000007,859.6678721000007,859.6678721000007,860.6675739999991,860.6675739999991,c,1,0.9131847999997262,None,01,001,2023-10-09_11h18.23.939,motor_sequence_learning,2023.1.3,59.80675242112376,
-150,z,,,,,17,1,69,3,861.6004775999991,862.6008636999995,862.6008636999995,862.6008636999995,862.6008636999995,862.6008636999995,863.6002076000004,863.6002076000004,z,1,1.1592486999998073,None,01,001,2023-10-09_11h18.23.939,motor_sequence_learning,2023.1.3,59.80675242112376,
-150,z,,,,,17,2,70,3,864.7840983999995,865.7839726999991,865.7839726999991,865.7839726999991,865.7839726999991,865.7839726999991,866.7838587999995,866.7838587999995,z,1,0.5776925000009214,None,01,001,2023-10-09_11h18.23.939,motor_sequence_learning,2023.1.3,59.80675242112376,
-150,z,,,,,17,3,71,3,867.3843808000001,868.3840928999998,868.3840928999998,868.3840928999998,868.3840928999998,868.3840928999998,869.3867561999996,869.3867561999996,z,1,0.5474064000009093,None,01,001,2023-10-09_11h18.23.939,motor_sequence_learning,2023.1.3,59.80675242112376,
-50,x,,,,,18,0,72,0,869.9502324999994,870.950757999999,870.950757999999,870.950757999999,870.950757999999,870.950757999999,871.9511041999995,871.9511041999995,x,1,0.6121086000002833,None,01,001,2023-10-09_11h18.23.939,motor_sequence_learning,2023.1.3,59.80675242112376,
-150,z,,,,,18,1,73,3,872.5841187000005,873.5839016999998,873.5839016999998,873.5839016999998,873.5839016999998,873.5839016999998,874.5838421000008,874.5838421000008,z,1,0.5742958999999246,None,01,001,2023-10-09_11h18.23.939,motor_sequence_learning,2023.1.3,59.80675242112376,
150,v,,,,,18,2,74,1,875.1832059999997,876.1838599999992,876.1838599999992,876.1838599999992,876.1838599999992,876.1838599999992,877.1831946999991,877.1831946999991,v,1,1.3331909999997151,None,01,001,2023-10-09_11h18.23.939,motor_sequence_learning,2023.1.3,59.80675242112376,
-150,z,,,,,18,3,75,3,878.5338050999999,879.5196479999995,879.5196479999995,879.5196479999995,879.5196479999995,879.5335517000003,880.5345646000005,880.5345646000005,z,1,0.6470731000008527,None,01,001,2023-10-09_11h18.23.939,motor_sequence_learning,2023.1.3,59.80675242112376,
-50,x,,,,,19,0,76,0,881.2001870000004,882.2003602000004,882.2003602000004,882.2003602000004,882.2003602000004,882.2003602000004,883.1999457000002,883.1999457000002,x,1,0.7396119999993971,None,01,001,2023-10-09_11h18.23.939,motor_sequence_learning,2023.1.3,59.80675242112376,
-50,x,,,,,19,1,77,0,883.9669887,884.967638099999,884.967638099999,884.967638099999,884.967638099999,884.967638099999,885.9670647000003,885.9670647000003,x,1,0.5173639000004187,None,01,001,2023-10-09_11h18.23.939,motor_sequence_learning,2023.1.3,59.80675242112376,
-50,x,,,,,19,2,78,0,886.5170223999994,887.5169917000003,887.5169917000003,887.5169917000003,887.5169917000003,887.5169917000003,888.5165674,888.5165674,x,1,0.6767003000004479,None,01,001,2023-10-09_11h18.23.939,motor_sequence_learning,2023.1.3,59.80675242112376,
150,v,,,,,19,3,79,1,889.216438899999,890.1998026000001,890.1998026000001,890.1998026000001,890.1998026000001,890.2163700000001,891.2167152000002,891.2167152000002,v,1,1.2123623000006774,None,01,001,2023-10-09_11h18.23.939,motor_sequence_learning,2023.1.3,59.80675242112376,
-150,z,,,,,20,0,80,3,892.4497678000007,893.4500143999994,893.4500143999994,893.4500143999994,893.4500143999994,893.4500143999994,894.4504988999997,894.4504988999997,z,1,1.0865262999996048,None,01,001,2023-10-09_11h18.23.939,motor_sequence_learning,2023.1.3,59.80675242112376,
-150,z,,,,,20,1,81,3,895.5664441999998,896.5666485000002,896.5666485000002,896.5666485000002,896.5666485000002,896.5666485000002,897.566257299999,897.566257299999,z,1,1.5920716000018729,None,01,001,2023-10-09_11h18.23.939,motor_sequence_learning,2023.1.3,59.80675242112376,
150,v,,,,,20,2,82,1,899.1829182999991,900.1834397999992,900.1834397999992,900.1834397999992,900.1834397999992,900.1834397999992,901.1833475000003,901.1833475000003,v,1,1.4145218000012392,None,01,001,2023-10-09_11h18.23.939,motor_sequence_learning,2023.1.3,59.80675242112376,
-50,x,,,,,20,3,83,0,902.6159915000007,903.6168108000002,903.6168108000002,903.6168108000002,903.6168108000002,903.6168108000002,904.6162072000006,904.6162072000006,x,1,0.8810358000009728,None,01,001,2023-10-09_11h18.23.939,motor_sequence_learning,2023.1.3,59.80675242112376,
-50,x,,,,,21,0,84,0,905.5166011000001,906.5166969999991,906.5166969999991,906.5166969999991,906.5166969999991,906.5166969999991,907.5171551000003,907.5171551000003,x,1,0.6796192000001611,None,01,001,2023-10-09_11h18.23.939,motor_sequence_learning,2023.1.3,59.80675242112376,
-150,z,,,,,21,1,85,3,908.2161763000004,909.2167411999999,909.2167411999999,909.2167411999999,909.2167411999999,909.2167411999999,910.2168509999992,910.2168509999992,z,1,0.9125182999996468,None,01,001,2023-10-09_11h18.23.939,motor_sequence_learning,2023.1.3,59.80675242112376,
150,v,,,,,21,2,86,1,911.1491385999998,912.1499064,912.1499064,912.1499064,912.1499064,912.1499064,913.1500109999997,913.1500109999997,v,1,0.7489293000016914,None,01,001,2023-10-09_11h18.23.939,motor_sequence_learning,2023.1.3,59.80675242112376,
150,v,,,,,21,3,87,1,913.9161093999992,914.9194251999998,914.9194251999998,914.9194251999998,914.9194251999998,914.9194251999998,915.9161581999997,915.9161581999997,v,1,1.3203238000005513,None,01,001,2023-10-09_11h18.23.939,motor_sequence_learning,2023.1.3,59.80675242112376,
50,c,,,,,22,0,88,2,917.2663042000004,918.2666895000002,918.2666895000002,918.2666895000002,918.2666895000002,918.2666895000002,919.2664132999998,919.2664132999998,c,1,0.7669200000000274,None,01,001,2023-10-09_11h18.23.939,motor_sequence_learning,2023.1.3,59.80675242112376,
-150,z,,,,,22,1,89,3,920.0495704000004,921.0498451999993,921.0498451999993,921.0498451999993,921.0498451999993,921.0498451999993,922.0494080000008,922.0494080000008,z,1,0.5979103999998188,None,01,001,2023-10-09_11h18.23.939,motor_sequence_learning,2023.1.3,59.80675242112376,
150,v,,,,,22,2,90,1,922.6657565999994,923.6663532999992,923.6663532999992,923.6663532999992,923.6663532999992,923.6663532999992,924.6663241000006,924.6663241000006,v,1,0.8584910000008676,None,01,001,2023-10-09_11h18.23.939,motor_sequence_learning,2023.1.3,59.80675242112376,
-150,z,,,,,22,3,91,3,925.5493492000005,926.549599,926.549599,926.549599,926.549599,926.549599,927.5493822000008,927.5493822000008,z,1,0.6904350000004342,None,01,001,2023-10-09_11h18.23.939,motor_sequence_learning,2023.1.3,59.80675242112376,
150,v,,,,,23,0,92,1,928.2662061999999,929.2658551999994,929.2658551999994,929.2658551999994,929.2658551999994,929.2658551999994,930.2660376000003,930.2660376000003,v,1,0.9735732000008284,None,01,001,2023-10-09_11h18.23.939,motor_sequence_learning,2023.1.3,59.80675242112376,
-50,x,,,,,23,1,93,0,931.2657089000004,932.2661272999994,932.2661272999994,932.2661272999994,932.2661272999994,932.2661272999994,933.266642999999,933.266642999999,x,1,0.7442102999993949,None,01,001,2023-10-09_11h18.23.939,motor_sequence_learning,2023.1.3,59.80675242112376,
150,v,,,,,23,2,94,1,934.0322164999998,935.0329289999991,935.0329289999991,935.0329289999991,935.0329289999991,935.0329289999991,936.0325704000006,936.0325704000006,v,1,0.7640467999990506,None,01,001,2023-10-09_11h18.23.939,motor_sequence_learning,2023.1.3,59.80675242112376,
50,c,,,,,23,3,95,2,936.8156558999999,937.8163182999997,937.8163182999997,937.8163182999997,937.8163182999997,937.8163182999997,938.8156713000008,938.8156713000008,c,1,1.1379441999997653,None,01,001,2023-10-09_11h18.23.939,motor_sequence_learning,2023.1.3,59.80675242112376,
-50,x,,,,,24,0,96,0,939.9820753999993,940.9827370000003,940.9827370000003,940.9827370000003,940.9827370000003,940.9827370000003,941.9825822999992,941.9825822999992,x,1,0.782549999999901,None,01,001,2023-10-09_11h18.23.939,motor_sequence_learning,2023.1.3,59.80675242112376,
-150,z,,,,,24,1,97,3,942.7823286000003,943.7825558000004,943.7825558000004,943.7825558000004,943.7825558000004,943.7825558000004,944.7825861000001,944.7825861000001,z,1,1.1119846000001417,None,01,001,2023-10-09_11h18.23.939,motor_sequence_learning,2023.1.3,59.80675242112376,
-150,z,,,,,24,2,98,3,945.9158489999991,946.9159756000008,946.9159756000008,946.9159756000008,946.9159756000008,946.9159756000008,947.9155962000004,947.9155962000004,z,1,0.5660170999999536,None,01,001,2023-10-09_11h18.23.939,motor_sequence_learning,2023.1.3,59.80675242112376,
50,c,,,,,24,3,99,2,948.4987927000002,949.4993947999992,949.4993947999992,949.4993947999992,949.4993947999992,949.4993947999992,950.4989822999996,950.4989822999996,c,1,0.8172716000008222,None,01,001,2023-10-09_11h18.23.939,motor_sequence_learning,2023.1.3,59.80675242112376,
-50,x,,,,,25,0,100,0,951.3326840999998,952.3325707999993,952.3325707999993,952.3325707999993,952.3325707999993,952.3325707999993,953.332245399999,953.332245399999,x,1,2.4376608000002307,None,01,001,2023-10-09_11h18.23.939,motor_sequence_learning,2023.1.3,59.80675242112376,
150,v,,,,,25,1,101,1,955.7989068000006,956.7990148999997,956.7990148999997,956.7990148999997,956.7990148999997,956.7990148999997,957.7987353000008,957.7987353000008,v,1,1.829116700000668,None,01,001,2023-10-09_11h18.23.939,motor_sequence_learning,2023.1.3,59.80675242112376,
-150,z,,,,,25,2,102,3,959.6484758999995,960.6490073000004,960.6490073000004,960.6490073000004,960.6490073000004,960.6490073000004,961.6493016000004,961.6493016000004,z,1,1.532490499999767,None,01,001,2023-10-09_11h18.23.939,motor_sequence_learning,2023.1.3,59.80675242112376,
-150,z,,,,,25,3,103,3,963.1995062999995,964.1987116,964.1987116,964.1987116,964.1987116,964.1987116,965.1988013999999,965.1988013999999,z,1,0.7361335000005056,None,01,001,2023-10-09_11h18.23.939,motor_sequence_learning,2023.1.3,59.80675242112376,
50,c,,,,,26,0,104,2,965.9663395000007,966.9656066000007,966.9656066000007,966.9656066000007,966.9656066000007,966.9656066000007,967.9654774999999,967.9654774999999,c,1,2.5703787000002194,None,01,001,2023-10-09_11h18.23.939,motor_sequence_learning,2023.1.3,59.80675242112376,
-50,x,,,,,26,1,105,0,970.5484930000002,971.5491287000004,971.5491287000004,971.5491287000004,971.5491287000004,971.5491287000004,972.5483736999995,972.5483736999995,x,1,0.7283108999999968,None,01,001,2023-10-09_11h18.23.939,motor_sequence_learning,2023.1.3,59.80675242112376,
150,v,,,,,26,2,106,1,973.2984395999993,974.2989887000003,974.2989887000003,974.2989887000003,974.2989887000003,974.2989887000003,975.2984871000008,975.2984871000008,v,1,1.049120599998787,None,01,001,2023-10-09_11h18.23.939,motor_sequence_learning,2023.1.3,59.80675242112376,
50,c,,,,,26,3,107,2,976.3651525000005,977.3652731000002,977.3652731000002,977.3652731000002,977.3652731000002,977.3652731000002,978.3648150999998,978.3648150999998,c,1,0.6151388000016595,None,01,001,2023-10-09_11h18.23.939,motor_sequence_learning,2023.1.3,59.80675242112376,
50,c,,,,,27,0,108,2,978.9980398999996,979.9985969999998,979.9985969999998,979.9985969999998,979.9985969999998,979.9985969999998,980.998446399999,980.998446399999,c,1,1.617878799999744,None,01,001,2023-10-09_11h18.23.939,motor_sequence_learning,2023.1.3,59.80675242112376,
150,v,,,,,27,1,109,1,982.6482849000004,983.6485300999993,983.6485300999993,983.6485300999993,983.6485300999993,983.6485300999993,984.6484404000003,984.6484404000003,v,1,0.816190399998959,None,01,001,2023-10-09_11h18.23.939,motor_sequence_learning,2023.1.3,59.80675242112376,
50,c,,,,,27,2,110,2,985.4810591000005,986.4817045,986.4817045,986.4817045,986.4817045,986.4817045,987.4822117999993,987.4822117999993,c,1,1.222832900000867,None,01,001,2023-10-09_11h18.23.939,motor_sequence_learning,2023.1.3,59.80675242112376,
-150,z,,,,,27,3,111,3,988.7313629,989.7319064000003,989.7319064000003,989.7319064000003,989.7319064000003,989.7319064000003,990.7191789999997,990.7191789999997,z,1,0.6323198000009143,None,01,001,2023-10-09_11h18.23.939,motor_sequence_learning,2023.1.3,59.80675242112376,
-50,x,,,,,28,0,112,0,991.3818730999992,992.3820675000006,992.3820675000006,992.3820675000006,992.3820675000006,992.3820675000006,993.3817099000007,993.3817099000007,x,1,0.6332434000014473,None,01,001,2023-10-09_11h18.23.939,motor_sequence_learning,2023.1.3,59.80675242112376,
150,v,,,,,28,1,113,1,994.0310866,995.0317715000001,995.0317715000001,995.0317715000001,995.0317715000001,995.0317715000001,996.0314361000001,996.0314361000001,v,1,0.6381690999987768,None,01,001,2023-10-09_11h18.23.939,motor_sequence_learning,2023.1.3,59.80675242112376,
50,c,,,,,28,2,114,2,996.6982012999997,997.6982631999999,997.6982631999999,997.6982631999999,997.6982631999999,997.6982631999999,998.6985010999997,998.6985010999997,c,1,0.7400920000000042,None,01,001,2023-10-09_11h18.23.939,motor_sequence_learning,2023.1.3,59.80675242112376,
150,v,,,,,28,3,115,1,999.4646446999996,1000.4656823999994,1000.4656823999994,1000.4656823999994,1000.4656823999994,1000.4656823999994,1001.4645787999998,1001.4645787999998,v,1,0.826358700000128,None,01,001,2023-10-09_11h18.23.939,motor_sequence_learning,2023.1.3,59.80675242112376,
150,v,,,,,29,0,116,1,1002.3144441999993,1003.3149985,1003.3149985,1003.3149985,1003.3149985,1003.3149985,1004.3148777999995,1004.3148777999995,v,1,0.5520041999989189,None,01,001,2023-10-09_11h18.23.939,motor_sequence_learning,2023.1.3,59.80675242112376,
150,v,,,,,29,1,117,1,1004.8979287999991,1005.9013985000001,1005.9013985000001,1005.9013985000001,1005.9013985000001,1005.9013985000001,1006.897895099999,1006.897895099999,v,1,0.858437299999423,None,01,001,2023-10-09_11h18.23.939,motor_sequence_learning,2023.1.3,59.80675242112376,
50,c,,,,,29,2,118,2,1007.7811868000008,1008.7813850000002,1008.7813850000002,1008.7813850000002,1008.7813850000002,1008.7813850000002,1009.7814292999992,1009.7814292999992,c,1,0.8001741000007314,None,01,001,2023-10-09_11h18.23.939,motor_sequence_learning,2023.1.3,59.80675242112376,
150,v,,,,,29,3,119,1,1010.5977366999996,1011.5980096999992,1011.5980096999992,1011.5980096999992,1011.5980096999992,1011.5980096999992,1012.5974425999993,1012.5974425999993,v,1,0.5369021000005887,None,01,001,2023-10-09_11h18.23.939,motor_sequence_learning,2023.1.3,59.80675242112376,
150,v,,,,,30,0,120,1,1013.1644238000008,1014.1648072999997,1014.1648072999997,1014.1648072999997,1014.1648072999997,1014.1648072999997,1015.1646553999999,1015.1646553999999,v,1,0.5848030999986804,None,01,001,2023-10-09_11h18.23.939,motor_sequence_learning,2023.1.3,59.80675242112376,
150,v,,,,,30,1,121,1,1015.7810515000001,1016.7815671000008,1016.7815671000008,1016.7815671000008,1016.7815671000008,1016.7815671000008,1017.7810681999999,1017.7810681999999,v,1,0.40554730000076233,None,01,001,2023-10-09_11h18.23.939,motor_sequence_learning,2023.1.3,59.80675242112376,
-150,z,,,,,30,2,122,3,1018.2150999000005,1019.2147280999998,1019.2147280999998,1019.2147280999998,1019.2147280999998,1019.2147280999998,1020.2149222999997,1020.2149222999997,z,1,0.9723207999995793,None,01,001,2023-10-09_11h18.23.939,motor_sequence_learning,2023.1.3,59.80675242112376,
50,c,,,,,30,3,123,2,1021.2150354999994,1022.2143918999991,1022.2143918999991,1022.2143918999991,1022.2143918999991,1022.2143918999991,1023.2143216000004,1023.2143216000004,c,1,0.7013798000007228,None,01,001,2023-10-09_11h18.23.939,motor_sequence_learning,2023.1.3,59.80675242112376,
50,c,,,,,31,0,124,2,1023.9522493000004,1024.9478927,1024.9478927,1024.9478927,1024.9478927,1024.964419,1025.9473782999994,1025.9473782999994,c,1,1.0460495999996056,None,01,001,2023-10-09_11h18.23.939,motor_sequence_learning,2023.1.3,59.80675242112376,
-50,x,,,,,31,1,125,0,1027.0140338,1028.0146184000005,1028.0146184000005,1028.0146184000005,1028.0146184000005,1028.0146184000005,1029.0141151000007,1029.0141151000007,x,1,3.940203800000745,None,01,001,2023-10-09_11h18.23.939,motor_sequence_learning,2023.1.3,59.80675242112376,
50,c,,,,,31,2,126,2,1032.9807455999999,1033.9810579000005,1033.9810579000005,1033.9810579000005,1033.9810579000005,1033.9810579000005,1034.9808773999994,1034.9808773999994,c,1,0.7104660000004515,None,01,001,2023-10-09_11h18.23.939,motor_sequence_learning,2023.1.3,59.80675242112376,
-150,z,,,,,31,3,127,3,1035.7137163000007,1036.7141183999993,1036.7141183999993,1036.7141183999993,1036.7141183999993,1036.7141183999993,1037.7139458000001,1037.7139458000001,z,1,0.6807327000005898,None,01,001,2023-10-09_11h18.23.939,motor_sequence_learning,2023.1.3,59.80675242112376,
-50,x,,,,,32,0,128,0,1038.4136880999995,1039.3973098999995,1039.3973098999995,1039.3973098999995,1039.3973098999995,1039.4143519999998,1040.4141182000003,1040.4141182000003,x,1,2.68618940000124,None,01,001,2023-10-09_11h18.23.939,motor_sequence_learning,2023.1.3,59.80675242112376,
-150,z,,,,,32,1,129,3,1043.1300475999997,1044.1308740999993,1044.1308740999993,1044.1308740999993,1044.1308740999993,1044.1308740999993,1045.1305458999996,1045.1305458999996,z,1,0.5072756999998091,None,01,001,2023-10-09_11h18.23.939,motor_sequence_learning,2023.1.3,59.80675242112376,
150,v,,,,,32,2,130,1,1045.6640958000007,1046.6641397999992,1046.6641397999992,1046.6641397999992,1046.6641397999992,1046.6641397999992,1047.6643585000002,1047.6643585000002,v,1,0.6479072000001906,None,01,001,2023-10-09_11h18.23.939,motor_sequence_learning,2023.1.3,59.80675242112376,
-150,z,,,,,32,3,131,3,1048.3302222999991,1049.3309604000005,1049.3309604000005,1049.3309604000005,1049.3309604000005,1049.3309604000005,1050.3303921999996,1050.3303921999996,z,1,0.5379339999999502,None,01,001,2023-10-09_11h18.23.939,motor_sequence_learning,2023.1.3,59.80675242112376,
150,v,,,,,33,0,132,1,1050.897061399999,1051.8974139000002,1051.8974139000002,1051.8974139000002,1051.8974139000002,1051.8974139000002,1052.8965317000002,1052.8965317000002,v,1,2.347182100000282,None,01,001,2023-10-09_11h18.23.939,motor_sequence_learning,2023.1.3,59.80675242112376,
150,v,,,,,33,1,133,1,1055.2630437999997,1056.2641325000004,1056.2641325000004,1056.2641325000004,1056.2641325000004,1056.2641325000004,1057.2640776000007,1057.2640776000007,v,1,0.6553727999998955,None,01,001,2023-10-09_11h18.23.939,motor_sequence_learning,2023.1.3,59.80675242112376,
150,v,,,,,33,2,134,1,1057.9468548000004,1058.9471023999995,1058.9471023999995,1058.9471023999995,1058.9471023999995,1058.9471023999995,1059.9474033000006,1059.9474033000006,v,1,2.241930500000308,None,01,001,2023-10-09_11h18.23.939,motor_sequence_learning,2023.1.3,59.80675242112376,
-150,z,,,,,33,3,135,3,1062.2135737999997,1063.2133525999998,1063.2133525999998,1063.2133525999998,1063.2133525999998,1063.2133525999998,1064.2134275000008,1064.2134275000008,z,1,0.6535973000009108,None,01,001,2023-10-09_11h18.23.939,motor_sequence_learning,2023.1.3,59.80675242112376,
-50,x,,,,,34,0,136,0,1064.8972293999996,1065.8976712999993,1065.8976712999993,1065.8976712999993,1065.8976712999993,1065.8976712999993,1066.8968784999997,1066.8968784999997,x,1,0.4676677999996173,None,01,001,2023-10-09_11h18.23.939,motor_sequence_learning,2023.1.3,59.80675242112376,
-150,z,,,,,34,1,137,3,1067.3970554000007,1068.3968855000003,1068.3968855000003,1068.3968855000003,1068.3968855000003,1068.3968855000003,1069.3966810000002,1069.3966810000002,z,1,0.472631900000124,None,01,001,2023-10-09_11h18.23.939,motor_sequence_learning,2023.1.3,59.80675242112376,
-150,z,,,,,34,2,138,3,1069.8970903999998,1070.8972381000003,1070.8972381000003,1070.8972381000003,1070.8972381000003,1070.8972381000003,1071.8967902000004,1071.8967902000004,z,1,0.5390640000005078,None,01,001,2023-10-09_11h18.23.939,motor_sequence_learning,2023.1.3,59.80675242112376,
-50,x,,,,,34,3,139,0,1072.4634280999999,1073.4637227000003,1073.4637227000003,1073.4637227000003,1073.4637227000003,1073.4637227000003,1074.4639633999996,1074.4639633999996,x,1,0.5027021000005334,None,01,001,2023-10-09_11h18.23.939,motor_sequence_learning,2023.1.3,59.80675242112376,
50,c,,,,,35,0,140,2,1074.9966158999996,1075.9968933,1075.9968933,1075.9968933,1075.9968933,1075.9968933,1076.9967269000008,1076.9967269000008,c,1,0.582331300000078,None,01,001,2023-10-09_11h18.23.939,motor_sequence_learning,2023.1.3,59.80675242112376,
50,c,,,,,35,1,141,2,1077.5968711000005,1078.597048399999,1078.597048399999,1078.597048399999,1078.597048399999,1078.597048399999,1079.5965899999992,1079.5965899999992,c,1,0.9520318000013503,None,01,001,2023-10-09_11h18.23.939,motor_sequence_learning,2023.1.3,59.80675242112376,
150,v,,,,,35,2,142,1,1080.5798563999997,1081.5801217999997,1081.5801217999997,1081.5801217999997,1081.5801217999997,1081.5801217999997,1082.5629489000003,1082.5629489000003,v,1,0.587762200000725,None,01,001,2023-10-09_11h18.23.939,motor_sequence_learning,2023.1.3,59.80675242112376,
-150,z,,,,,35,3,143,3,1083.1794750999998,1084.1807016999992,1084.1807016999992,1084.1807016999992,1084.1807016999992,1084.1807016999992,1085.1796221999994,1085.1796221999994,z,1,0.6825185000016063,None,01,001,2023-10-09_11h18.23.939,motor_sequence_learning,2023.1.3,59.80675242112376,
-150,z,,,,,36,0,144,3,1085.8791325999991,1086.8804834000002,1086.8804834000002,1086.8804834000002,1086.8804834000002,1086.8804834000002,1087.8801038000001,1087.8801038000001,z,1,0.48731430000043474,None,01,001,2023-10-09_11h18.23.939,motor_sequence_learning,2023.1.3,59.80675242112376,
50,c,,,,,36,1,145,2,1088.3975960999996,1089.3968810999995,1089.3968810999995,1089.3968810999995,1089.3968810999995,1089.3968810999995,1090.3968654,1090.3968654,c,1,0.630410200001279,None,01,001,2023-10-09_11h18.23.939,motor_sequence_learning,2023.1.3,59.80675242112376,
-50,x,,,,,36,2,146,0,1091.0466395999993,1092.046737999999,1092.046737999999,1092.046737999999,1092.046737999999,1092.046737999999,1093.0463949999994,1093.0463949999994,x,1,0.5359752999993361,None,01,001,2023-10-09_11h18.23.939,motor_sequence_learning,2023.1.3,59.80675242112376,
-150,z,,,,,36,3,147,3,1093.6129402999995,1094.6132433999992,1094.6132433999992,1094.6132433999992,1094.6132433999992,1094.6132433999992,1095.6127257000007,1095.6127257000007,z,1,0.5402281999995466,None,01,001,2023-10-09_11h18.23.939,motor_sequence_learning,2023.1.3,59.80675242112376,
150,v,,,,,37,0,148,1,1096.1797736000008,1097.1802444999994,1097.1802444999994,1097.1802444999994,1097.1802444999994,1097.1802444999994,1098.1794615,1098.1794615,v,1,0.6982061000016984,None,01,001,2023-10-09_11h18.23.939,motor_sequence_learning,2023.1.3,59.80675242112376,
50,c,,,,,37,1,149,2,1098.8953270000002,1099.8959887,1099.8959887,1099.8959887,1099.8959887,1099.8959887,1100.8953579999998,1100.8953579999998,c,1,1.0286957000007533,None,01,001,2023-10-09_11h18.23.939,motor_sequence_learning,2023.1.3,59.80675242112376,
-150,z,,,,,37,2,150,3,1101.9461766999993,1102.9457034000006,1102.9457034000006,1102.9457034000006,1102.9457034000006,1102.9457034000006,1103.9463488000001,1103.9463488000001,z,1,0.9022487000002002,None,01,001,2023-10-09_11h18.23.939,motor_sequence_learning,2023.1.3,59.80675242112376,
150,v,,,,,37,3,151,1,1104.8794292000002,1105.8797223000001,1105.8797223000001,1105.8797223000001,1105.8797223000001,1105.8797223000001,1106.8795422999992,1106.8795422999992,v,1,1.180188400001498,None,01,001,2023-10-09_11h18.23.939,motor_sequence_learning,2023.1.3,59.80675242112376,
150,v,,,,,38,0,152,1,1108.0792751999998,1109.0796530000007,1109.0796530000007,1109.0796530000007,1109.0796530000007,1109.0796530000007,1110.0794165000007,1110.0794165000007,v,1,0.5959051000008913,None,01,001,2023-10-09_11h18.23.939,motor_sequence_learning,2023.1.3,59.80675242112376,
150,v,,,,,38,1,153,1,1110.696262899999,1111.6966278,1111.6966278,1111.6966278,1111.6966278,1111.6966278,1112.6956209,1112.6956209,v,1,1.8408940999997867,None,01,001,2023-10-09_11h18.23.939,motor_sequence_learning,2023.1.3,59.80675242112376,
-150,z,,,,,38,2,154,3,1114.5624152,1115.5627141999994,1115.5627141999994,1115.5627141999994,1115.5627141999994,1115.5627141999994,1116.5627650000006,1116.5627650000006,z,1,2.1241215000009106,None,01,001,2023-10-09_11h18.23.939,motor_sequence_learning,2023.1.3,59.80675242112376,
150,v,,,,,38,3,155,1,1118.7123145000005,1119.7129444000002,1119.7129444000002,1119.7129444000002,1119.7129444000002,1119.7129444000002,1120.7125735999998,1120.7125735999998,v,1,0.5973260999999184,None,01,001,2023-10-09_11h18.23.939,motor_sequence_learning,2023.1.3,59.80675242112376,
150,v,,,,,39,0,156,1,1121.3293677000001,1122.3295154999996,1122.3295154999996,1122.3295154999996,1122.3295154999996,1122.3295154999996,1123.3294771,1123.3294771,v,1,0.5805486999997811,None,01,001,2023-10-09_11h18.23.939,motor_sequence_learning,2023.1.3,59.80675242112376,
-50,x,,,,,39,1,157,0,1123.9285820000005,1124.9293859999998,1124.9293859999998,1124.9293859999998,1124.9293859999998,1124.9293859999998,1125.9289499999995,1125.9289499999995,x,1,0.5390805000006367,None,01,001,2023-10-09_11h18.23.939,motor_sequence_learning,2023.1.3,59.80675242112376,
50,c,,,,,39,2,158,2,1126.4952439999997,1127.4959674000002,1127.4959674000002,1127.4959674000002,1127.4959674000002,1127.4959674000002,1128.4956490999994,1128.4956490999994,c,1,0.9883528999998816,None,01,001,2023-10-09_11h18.23.939,motor_sequence_learning,2023.1.3,59.80675242112376,
-150,z,,,,,39,3,159,3,1129.5129099999995,1130.512658399999,1130.512658399999,1130.512658399999,1130.512658399999,1130.512658399999,1131.5129041,1131.5129041,z,1,0.6127614000015456,None,01,001,2023-10-09_11h18.23.939,motor_sequence_learning,2023.1.3,59.80675242112376,
-50,x,,,,,40,0,160,0,1132.1456443999996,1133.1458569999995,1133.1458569999995,1133.1458569999995,1133.1458569999995,1133.1458569999995,1134.1455891999994,1134.1455891999994,x,1,1.5283206000003702,None,01,001,2023-10-09_11h18.23.939,motor_sequence_learning,2023.1.3,59.80675242112376,
-50,x,,,,,40,1,161,0,1135.6951198000006,1136.6958916000003,1136.6958916000003,1136.6958916000003,1136.6958916000003,1136.6958916000003,1137.695837199999,1137.695837199999,x,1,0.5317801000001054,None,01,001,2023-10-09_11h18.23.939,motor_sequence_learning,2023.1.3,59.80675242112376,
